"","Subject","session","Ensemble","Addend","Augend","rt","Accuracy","Response","ResponseType","Trial","Block"
"1",10,1,333,3,"J",2927,1,"N","true+1",1,2
"2",10,1,333,5,"H",3927,1,"M","true",2,2
"3",10,1,333,2,"J",3039,1,"L","true",3,2
"4",10,1,333,3,"F",3777,1,"I","true",4,2
"5",10,1,333,5,"I",4787,1,"O","true+1",5,2
"6",10,1,333,4,"H",3998,1,"L","true",6,2
"7",10,1,333,4,"I",4938,1,"M","true",7,2
"8",10,1,333,4,"E",2853,1,"I","true",8,2
"9",10,1,333,2,"J",2946,1,"M","true+1",9,2
"10",10,1,333,3,"G",3301,1,"K","true+1",10,2
"11",10,1,333,2,"G",2455,1,"H","true-1",11,2
"12",10,1,333,4,"E",3671,1,"I","true",12,2
"13",10,1,333,2,"I",2097,1,"K","true",13,2
"14",10,1,333,3,"F",2667,1,"H","true-1",14,2
"15",10,1,333,5,"H",4956,1,"N","true+1",15,2
"16",10,1,333,4,"J",2370,1,"M","true-1",16,2
"17",10,1,333,5,"G",3222,1,"L","true",17,2
"18",10,1,333,4,"I",3795,1,"N","true+1",18,2
"19",10,1,333,2,"I",1567,1,"J","true-1",19,2
"20",10,1,333,3,"H",2938,1,"J","true-1",20,2
"21",10,1,333,3,"E",2164,1,"G","true-1",21,2
"22",10,1,333,4,"H",3409,1,"K","true-1",22,2
"23",10,1,333,3,"H",1403,1,"K","true",23,2
"24",10,1,333,3,"F",5475,1,"J","true+1",25,2
"25",10,1,333,2,"J",4527,1,"L","true",26,2
"26",10,1,333,3,"I",3706,1,"M","true+1",27,2
"27",10,1,333,3,"I",3338,1,"L","true",28,2
"28",10,1,333,2,"E",2985,1,"G","true",29,2
"29",10,1,333,3,"I",2763,1,"K","true-1",30,2
"30",10,1,333,5,"H",4363,1,"L","true-1",31,2
"31",10,1,333,2,"F",2846,1,"G","true-1",32,2
"32",10,1,333,2,"E",2866,1,"H","true+1",33,2
"33",10,1,333,5,"I",3450,1,"M","true-1",34,2
"34",10,1,333,2,"H",2610,1,"J","true",35,2
"35",10,1,333,5,"E",1934,1,"I","true-1",37,2
"36",10,1,333,5,"F",6676,1,"L","true+1",39,2
"37",10,1,333,2,"H",2047,1,"J","true",40,2
"38",10,1,333,4,"G",4714,1,"L","true+1",41,2
"39",10,1,333,3,"J",4092,1,"L","true-1",43,2
"40",10,1,333,3,"J",1918,1,"M","true",44,2
"41",10,1,333,3,"G",5037,1,"I","true-1",45,2
"42",10,1,333,4,"F",6270,1,"J","true",46,2
"43",10,1,333,2,"J",2051,1,"K","true-1",47,2
"44",10,1,333,3,"G",4702,1,"J","true",48,2
"45",10,1,333,4,"E",2685,1,"H","true-1",49,2
"46",10,1,333,2,"E",3041,1,"G","true",50,2
"47",10,1,333,4,"J",3571,1,"O","true+1",51,2
"48",10,1,333,4,"G",3477,1,"J","true-1",52,2
"49",10,1,333,4,"G",5819,1,"K","true",54,2
"50",10,1,333,2,"F",3468,1,"I","true+1",55,2
"51",10,1,333,4,"J",5718,1,"N","true",56,2
"52",10,1,333,3,"H",3367,1,"L","true+1",57,2
"53",10,1,333,3,"E",3843,1,"I","true+1",58,2
"54",10,1,333,5,"E",3535,1,"J","true",60,2
"55",10,1,333,2,"G",2364,1,"I","true",61,2
"56",10,1,333,4,"F",3847,1,"I","true-1",62,2
"57",10,1,333,2,"G",2379,1,"I","true",63,2
"58",10,1,333,2,"F",2425,1,"H","true",64,2
"59",10,1,333,4,"H",6037,1,"M","true+1",65,2
"60",10,1,333,3,"E",3215,1,"H","true",66,2
"61",10,1,333,2,"E",2795,1,"F","true-1",67,2
"62",10,1,333,5,"I",4878,1,"N","true",68,2
"63",10,1,333,2,"I",1568,1,"K","true",69,2
"64",10,1,333,4,"I",5114,1,"L","true-1",70,2
"65",10,1,333,4,"G",4056,1,"K","true",71,2
"66",10,1,333,5,"F",8019,1,"J","true-1",73,2
"67",10,1,333,3,"G",3874,1,"J","true",74,2
"68",10,1,333,2,"H",3251,1,"I","true-1",75,2
"69",10,1,333,5,"F",4949,1,"K","true",77,2
"70",10,1,333,3,"H",3402,1,"K","true",78,2
"71",10,1,333,2,"F",2443,1,"H","true",79,2
"72",10,1,333,4,"I",3370,1,"M","true",80,2
"73",10,1,333,2,"H",3490,1,"K","true+1",82,2
"74",10,1,333,3,"F",4528,1,"I","true",83,2
"75",10,1,333,4,"F",5709,1,"K","true+1",84,2
"76",10,1,333,3,"E",2908,1,"H","true",85,2
"77",10,1,333,4,"F",5146,1,"J","true",86,2
"78",10,1,333,5,"E",5540,1,"K","true+1",87,2
"79",10,1,333,3,"I",2115,1,"L","true",88,2
"80",10,1,333,4,"H",5071,1,"L","true",89,2
"81",10,1,333,3,"J",4019,1,"M","true",91,2
"82",10,1,333,5,"E",4884,1,"J","true",93,2
"83",10,1,333,4,"J",5398,1,"N","true",94,2
"84",10,1,333,5,"F",5286,1,"K","true",95,2
"85",10,1,333,2,"G",3109,1,"J","true+1",96,2
"86",10,1,333,2,"G",2743,1,"I","true",1,3
"87",10,1,333,3,"I",2363,1,"L","true",2,3
"88",10,1,333,4,"F",4013,1,"J","true",5,3
"89",10,1,333,2,"G",1459,1,"H","true-1",6,3
"90",10,1,333,3,"I",2827,1,"K","true-1",7,3
"91",10,1,333,3,"E",3413,1,"I","true+1",8,3
"92",10,1,333,4,"G",3783,1,"J","true-1",9,3
"93",10,1,333,2,"J",2634,1,"M","true+1",10,3
"94",10,1,333,4,"E",3738,1,"I","true",12,3
"95",10,1,333,3,"J",3118,1,"L","true-1",13,3
"96",10,1,333,3,"J",1340,1,"N","true+1",14,3
"97",10,1,333,3,"E",2827,1,"H","true",15,3
"98",10,1,333,3,"E",1356,1,"H","true",16,3
"99",10,1,333,2,"E",1062,1,"H","true+1",17,3
"100",10,1,333,5,"H",3531,1,"N","true+1",18,3
"101",10,1,333,2,"J",3183,1,"K","true-1",19,3
"102",10,1,333,5,"G",5374,1,"K","true-1",20,3
"103",10,1,333,5,"F",3315,1,"K","true",21,3
"104",10,1,333,4,"E",3278,1,"H","true-1",22,3
"105",10,1,333,2,"I",2020,1,"L","true+1",23,3
"106",10,1,333,2,"I",1491,1,"J","true-1",24,3
"107",10,1,333,3,"G",4090,1,"K","true+1",26,3
"108",10,1,333,4,"J",8417,1,"N","true",28,3
"109",10,1,333,4,"E",4900,1,"I","true",29,3
"110",10,1,333,2,"H",1978,1,"J","true",30,3
"111",10,1,333,5,"E",4074,1,"I","true-1",31,3
"112",10,1,333,4,"H",3706,1,"K","true-1",32,3
"113",10,1,333,3,"H",2673,1,"J","true-1",33,3
"114",10,1,333,2,"F",2795,1,"I","true+1",34,3
"115",10,1,333,3,"F",2623,1,"J","true+1",35,3
"116",10,1,333,4,"I",6106,1,"M","true",36,3
"117",10,1,333,4,"F",7958,1,"K","true+1",37,3
"118",10,1,333,3,"H",3388,1,"K","true",38,3
"119",10,1,333,2,"E",1755,1,"F","true-1",39,3
"120",10,1,333,5,"G",5633,1,"M","true+1",40,3
"121",10,1,333,4,"F",8114,1,"J","true",42,3
"122",10,1,333,4,"I",4303,1,"N","true+1",43,3
"123",10,1,333,3,"G",2402,1,"I","true-1",44,3
"124",10,1,333,5,"H",9434,1,"L","true-1",45,3
"125",10,1,333,4,"J",6545,1,"M","true-1",46,3
"126",10,1,333,2,"H",1608,1,"J","true",47,3
"127",10,1,333,4,"H",2377,1,"L","true",48,3
"128",10,1,333,2,"H",1501,1,"I","true-1",49,3
"129",10,1,333,5,"F",4925,1,"L","true+1",50,3
"130",10,1,333,2,"F",1941,1,"G","true-1",51,3
"131",10,1,333,4,"I",2768,1,"L","true-1",52,3
"132",10,1,333,5,"G",5105,1,"L","true",53,3
"133",10,1,333,5,"G",4641,1,"L","true",55,3
"134",10,1,333,4,"J",1238,1,"O","true+1",56,3
"135",10,1,333,3,"G",2902,1,"J","true",57,3
"136",10,1,333,4,"E",4803,1,"J","true+1",58,3
"137",10,1,333,2,"F",2713,1,"H","true",59,3
"138",10,1,333,3,"E",2969,1,"G","true-1",60,3
"139",10,1,333,3,"I",3625,1,"M","true+1",61,3
"140",10,1,333,3,"G",3052,1,"J","true",62,3
"141",10,1,333,2,"G",863,1,"J","true+1",63,3
"142",10,1,333,5,"E",4309,1,"K","true+1",65,3
"143",10,1,333,4,"G",3952,1,"K","true",66,3
"144",10,1,333,2,"G",2005,1,"I","true",67,3
"145",10,1,333,5,"H",4930,1,"M","true",68,3
"146",10,1,333,3,"J",3155,1,"M","true",69,3
"147",10,1,333,3,"I",1293,1,"L","true",71,3
"148",10,1,333,3,"H",2821,1,"L","true+1",72,3
"149",10,1,333,2,"E",2133,1,"G","true",73,3
"150",10,1,333,3,"F",3469,1,"I","true",74,3
"151",10,1,333,3,"F",2631,1,"H","true-1",75,3
"152",10,1,333,4,"J",4483,1,"N","true",76,3
"153",10,1,333,4,"H",5334,1,"M","true+1",78,3
"154",10,1,333,2,"J",3428,1,"L","true",79,3
"155",10,1,333,3,"H",3514,1,"K","true",80,3
"156",10,1,333,5,"I",7628,1,"N","true",81,3
"157",10,1,333,2,"I",1770,1,"K","true",83,3
"158",10,1,333,3,"F",4082,1,"I","true",84,3
"159",10,1,333,5,"F",2043,1,"J","true-1",85,3
"160",10,1,333,4,"F",1772,1,"I","true-1",86,3
"161",10,1,333,2,"H",2301,1,"K","true+1",87,3
"162",10,1,333,2,"E",1550,1,"G","true",88,3
"163",10,1,333,4,"G",3989,1,"L","true+1",89,3
"164",10,1,333,4,"G",1934,1,"K","true",90,3
"165",10,1,333,2,"I",2296,1,"K","true",91,3
"166",10,1,333,3,"J",2833,1,"M","true",92,3
"167",10,1,333,4,"I",3812,1,"M","true",93,3
"168",10,1,333,5,"H",4093,1,"M","true",95,3
"169",10,1,333,5,"I",4398,1,"O","true+1",96,3
"170",10,1,333,2,"G",2687,1,"I","true",1,4
"171",10,1,333,3,"E",2812,1,"G","true-1",2,4
"172",10,1,333,4,"J",1740,1,"N","true",4,4
"173",10,1,333,5,"H",1240,1,"M","true",5,4
"174",10,1,333,2,"G",1513,1,"H","true-1",6,4
"175",10,1,333,2,"E",1666,1,"G","true",7,4
"176",10,1,333,2,"G",2451,1,"I","true",8,4
"177",10,1,333,3,"G",3180,1,"J","true",9,4
"178",10,1,333,3,"I",2299,1,"K","true-1",10,4
"179",10,1,333,3,"F",3484,1,"J","true+1",11,4
"180",10,1,333,2,"H",2100,1,"J","true",12,4
"181",10,1,333,4,"F",3798,1,"J","true",13,4
"182",10,1,333,4,"I",3667,1,"N","true+1",14,4
"183",10,1,333,2,"F",2284,1,"G","true-1",15,4
"184",10,1,333,2,"H",2819,1,"I","true-1",18,4
"185",10,1,333,2,"F",3363,1,"H","true",19,4
"186",10,1,333,5,"I",5254,1,"N","true",20,4
"187",10,1,333,2,"E",1697,1,"G","true",21,4
"188",10,1,333,3,"F",3670,1,"H","true-1",23,4
"189",10,1,333,5,"I",1991,1,"O","true+1",24,4
"190",10,1,333,4,"I",4250,1,"M","true",25,4
"191",10,1,333,5,"F",4660,1,"K","true",26,4
"192",10,1,333,2,"H",2852,1,"K","true+1",27,4
"193",10,1,333,3,"H",4953,1,"J","true-1",28,4
"194",10,1,333,3,"F",2806,1,"I","true",29,4
"195",10,1,333,3,"J",3820,1,"M","true",30,4
"196",10,1,333,4,"F",5148,1,"K","true+1",31,4
"197",10,1,333,4,"I",5270,1,"M","true",32,4
"198",10,1,333,4,"E",4019,1,"I","true",33,4
"199",10,1,333,3,"F",5378,1,"I","true",34,4
"200",10,1,333,2,"G",2528,1,"J","true+1",35,4
"201",10,1,333,5,"G",5916,1,"M","true+1",36,4
"202",10,1,333,5,"H",1211,1,"M","true",37,4
"203",10,1,333,4,"E",3487,1,"I","true",38,4
"204",10,1,333,3,"H",5044,1,"K","true",39,4
"205",10,1,333,4,"H",2015,1,"M","true+1",40,4
"206",10,1,333,5,"F",4700,1,"J","true-1",41,4
"207",10,1,333,3,"J",3483,1,"L","true-1",42,4
"208",10,1,333,3,"G",3419,1,"I","true-1",44,4
"209",10,1,333,2,"F",2782,1,"I","true+1",45,4
"210",10,1,333,3,"I",5049,1,"L","true",46,4
"211",10,1,333,2,"J",1221,1,"L","true",47,4
"212",10,1,333,4,"G",4314,1,"K","true",48,4
"213",10,1,333,2,"H",2709,1,"J","true",49,4
"214",10,1,333,3,"G",4557,1,"K","true+1",50,4
"215",10,1,333,4,"E",4101,1,"H","true-1",51,4
"216",10,1,333,5,"G",5545,1,"L","true",52,4
"217",10,1,333,2,"J",3327,1,"L","true",53,4
"218",10,1,333,4,"H",5005,1,"L","true",54,4
"219",10,1,333,3,"J",3197,1,"M","true",56,4
"220",10,1,333,5,"H",5134,1,"N","true+1",57,4
"221",10,1,333,4,"J",3510,1,"M","true-1",58,4
"222",10,1,333,3,"E",3119,1,"I","true+1",59,4
"223",10,1,333,5,"E",3061,1,"K","true+1",60,4
"224",10,1,333,5,"I",4234,1,"M","true-1",61,4
"225",10,1,333,4,"G",4674,1,"K","true",62,4
"226",10,1,333,3,"E",2612,1,"H","true",63,4
"227",10,1,333,4,"J",5205,1,"N","true",64,4
"228",10,1,333,4,"F",5479,1,"J","true",65,4
"229",10,1,333,5,"H",2708,1,"L","true-1",66,4
"230",10,1,333,5,"E",5924,1,"J","true",67,4
"231",10,1,333,3,"H",3627,1,"K","true",68,4
"232",10,1,333,2,"E",1383,1,"F","true-1",69,4
"233",10,1,333,3,"H",3372,1,"L","true+1",70,4
"234",10,1,333,4,"J",4312,1,"O","true+1",71,4
"235",10,1,333,3,"G",3044,1,"J","true",72,4
"236",10,1,333,2,"J",4198,1,"M","true+1",73,4
"237",10,1,333,3,"E",3576,1,"H","true",74,4
"238",10,1,333,2,"I",1804,1,"K","true",75,4
"239",10,1,333,2,"I",2258,1,"L","true+1",76,4
"240",10,1,333,4,"H",4236,1,"L","true",77,4
"241",10,1,333,5,"I",5236,1,"N","true",78,4
"242",10,1,333,5,"G",3956,1,"L","true",79,4
"243",10,1,333,2,"I",1332,1,"J","true-1",81,4
"244",10,1,333,5,"F",5106,1,"L","true+1",82,4
"245",10,1,333,4,"G",1462,1,"L","true+1",83,4
"246",10,1,333,5,"E",4272,1,"J","true",84,4
"247",10,1,333,3,"I",4846,1,"M","true+1",86,4
"248",10,1,333,3,"I",1899,1,"L","true",87,4
"249",10,1,333,3,"J",5614,1,"N","true+1",88,4
"250",10,1,333,4,"F",3544,1,"I","true-1",89,4
"251",10,1,333,2,"J",2151,1,"K","true-1",90,4
"252",10,1,333,4,"I",3633,1,"L","true-1",91,4
"253",10,1,333,2,"F",1613,1,"H","true",92,4
"254",10,1,333,2,"E",2982,1,"H","true+1",93,4
"255",10,1,333,4,"G",2870,1,"J","true-1",94,4
"256",10,1,333,5,"G",3190,1,"K","true-1",95,4
"257",10,1,333,2,"I",2974,1,"K","true",96,4
"258",10,2,333,4,"I",2240,1,"N","true+1",1,2
"259",10,2,333,4,"F",5004,1,"J","true",2,2
"260",10,2,333,3,"I",2363,1,"L","true",3,2
"261",10,2,333,4,"H",3330,1,"M","true+1",4,2
"262",10,2,333,4,"F",3101,1,"K","true+1",5,2
"263",10,2,333,3,"J",4275,1,"N","true+1",7,2
"264",10,2,333,2,"H",2676,1,"K","true+1",8,2
"265",10,2,333,3,"J",5157,1,"L","true-1",10,2
"266",10,2,333,2,"I",1587,1,"K","true",12,2
"267",10,2,333,4,"F",3885,1,"I","true-1",13,2
"268",10,2,333,3,"F",4239,1,"J","true+1",14,2
"269",10,2,333,4,"H",3376,1,"L","true",15,2
"270",10,2,333,2,"J",2938,1,"M","true+1",16,2
"271",10,2,333,3,"F",1815,1,"I","true",17,2
"272",10,2,333,3,"J",1357,1,"M","true",19,2
"273",10,2,333,5,"H",4658,1,"L","true-1",20,2
"274",10,2,333,4,"I",6208,1,"M","true",21,2
"275",10,2,333,5,"G",3880,1,"L","true",22,2
"276",10,2,333,3,"H",3386,1,"L","true+1",23,2
"277",10,2,333,4,"G",3699,1,"L","true+1",24,2
"278",10,2,333,3,"E",1869,1,"G","true-1",25,2
"279",10,2,333,5,"G",6955,1,"K","true-1",26,2
"280",10,2,333,4,"H",2854,1,"L","true",28,2
"281",10,2,333,2,"H",1751,1,"J","true",29,2
"282",10,2,333,3,"F",3578,1,"I","true",30,2
"283",10,2,333,2,"E",1546,1,"G","true",31,2
"284",10,2,333,3,"G",2487,1,"J","true",32,2
"285",10,2,333,4,"G",2329,1,"J","true-1",33,2
"286",10,2,333,5,"H",5058,1,"N","true+1",34,2
"287",10,2,333,2,"F",1502,1,"G","true-1",35,2
"288",10,2,333,3,"E",1992,1,"H","true",37,2
"289",10,2,333,3,"G",3344,1,"K","true+1",38,2
"290",10,2,333,2,"E",1275,1,"G","true",39,2
"291",10,2,333,4,"E",1604,1,"H","true-1",40,2
"292",10,2,333,3,"G",2684,1,"J","true",41,2
"293",10,2,333,5,"E",4325,1,"J","true",42,2
"294",10,2,333,3,"H",2963,1,"J","true-1",43,2
"295",10,2,333,5,"F",5135,1,"J","true-1",44,2
"296",10,2,333,4,"F",3912,1,"J","true",45,2
"297",10,2,333,5,"F",1305,1,"K","true",46,2
"298",10,2,333,3,"E",4464,1,"I","true+1",47,2
"299",10,2,333,4,"J",2376,1,"N","true",48,2
"300",10,2,333,4,"J",943,1,"N","true",49,2
"301",10,2,333,2,"G",1415,1,"H","true-1",50,2
"302",10,2,333,2,"I",1449,1,"J","true-1",51,2
"303",10,2,333,2,"J",1547,1,"L","true",52,2
"304",10,2,333,3,"H",3175,1,"K","true",53,2
"305",10,2,333,2,"G",3722,1,"J","true+1",54,2
"306",10,2,333,5,"G",3219,1,"L","true",55,2
"307",10,2,333,2,"E",1412,1,"F","true-1",56,2
"308",10,2,333,2,"E",2342,1,"H","true+1",57,2
"309",10,2,333,5,"F",3806,1,"K","true",58,2
"310",10,2,333,3,"E",3860,1,"H","true",59,2
"311",10,2,333,3,"G",2567,1,"I","true-1",60,2
"312",10,2,333,2,"F",2597,1,"I","true+1",61,2
"313",10,2,333,2,"G",2838,1,"I","true",63,2
"314",10,2,333,2,"J",2695,1,"K","true-1",64,2
"315",10,2,333,5,"E",3887,1,"J","true",65,2
"316",10,2,333,5,"I",3073,1,"N","true",66,2
"317",10,2,333,2,"I",2731,1,"L","true+1",68,2
"318",10,2,333,3,"J",4561,1,"M","true",69,2
"319",10,2,333,4,"I",4357,1,"M","true",70,2
"320",10,2,333,4,"I",1057,1,"L","true-1",71,2
"321",10,2,333,4,"E",3508,1,"I","true",72,2
"322",10,2,333,3,"I",2151,1,"K","true-1",73,2
"323",10,2,333,5,"H",984,1,"M","true",74,2
"324",10,2,333,5,"G",1566,1,"M","true+1",75,2
"325",10,2,333,5,"F",4090,1,"L","true+1",76,2
"326",10,2,333,3,"H",1986,1,"K","true",77,2
"327",10,2,333,5,"I",1755,1,"O","true+1",78,2
"328",10,2,333,4,"J",2318,1,"M","true-1",79,2
"329",10,2,333,2,"I",1863,1,"K","true",80,2
"330",10,2,333,3,"I",2373,1,"L","true",81,2
"331",10,2,333,3,"F",2588,1,"H","true-1",82,2
"332",10,2,333,4,"E",5145,1,"J","true+1",83,2
"333",10,2,333,2,"H",2242,1,"J","true",84,2
"334",10,2,333,4,"J",1294,1,"O","true+1",85,2
"335",10,2,333,2,"F",2230,1,"H","true",86,2
"336",10,2,333,5,"E",2628,1,"K","true+1",87,2
"337",10,2,333,2,"F",1380,1,"H","true",89,2
"338",10,2,333,3,"I",2889,1,"M","true+1",90,2
"339",10,2,333,4,"H",6760,1,"K","true-1",91,2
"340",10,2,333,5,"H",887,1,"M","true",92,2
"341",10,2,333,4,"E",2434,1,"I","true",93,2
"342",10,2,333,2,"J",1878,1,"L","true",94,2
"343",10,2,333,2,"H",3315,1,"I","true-1",95,2
"344",10,2,333,4,"G",3567,1,"K","true",96,2
"345",10,2,333,2,"E",1761,1,"G","true",1,3
"346",10,2,333,4,"G",2468,1,"K","true",2,3
"347",10,2,333,3,"H",2038,1,"K","true",3,3
"348",10,2,333,4,"H",1613,1,"M","true+1",4,3
"349",10,2,333,2,"G",2181,1,"J","true+1",5,3
"350",10,2,333,5,"F",5413,1,"J","true-1",6,3
"351",10,2,333,3,"F",3409,1,"I","true",7,3
"352",10,2,333,5,"F",3433,1,"L","true+1",8,3
"353",10,2,333,3,"I",2672,1,"K","true-1",9,3
"354",10,2,333,4,"I",2681,1,"M","true",10,3
"355",10,2,333,5,"E",6562,1,"K","true+1",11,3
"356",10,2,333,2,"I",2955,1,"L","true+1",13,3
"357",10,2,333,3,"I",1655,1,"L","true",14,3
"358",10,2,333,4,"J",2382,1,"N","true",15,3
"359",10,2,333,4,"E",4677,1,"I","true",16,3
"360",10,2,333,5,"I",1763,1,"O","true+1",17,3
"361",10,2,333,3,"H",3429,1,"L","true+1",18,3
"362",10,2,333,3,"J",3021,1,"L","true-1",19,3
"363",10,2,333,3,"F",4226,1,"J","true+1",23,3
"364",10,2,333,4,"G",3253,1,"K","true",24,3
"365",10,2,333,3,"G",2771,1,"K","true+1",25,3
"366",10,2,333,5,"E",1496,1,"J","true",26,3
"367",10,2,333,4,"H",7319,1,"K","true-1",27,3
"368",10,2,333,2,"I",2156,1,"K","true",28,3
"369",10,2,333,4,"I",3693,1,"M","true",29,3
"370",10,2,333,5,"G",6663,1,"M","true+1",30,3
"371",10,2,333,2,"I",1595,1,"J","true-1",31,3
"372",10,2,333,3,"F",3142,1,"H","true-1",32,3
"373",10,2,333,4,"I",4042,1,"N","true+1",33,3
"374",10,2,333,4,"H",3901,1,"L","true",35,3
"375",10,2,333,2,"H",1710,1,"J","true",36,3
"376",10,2,333,3,"E",2899,1,"G","true-1",37,3
"377",10,2,333,5,"I",2897,1,"N","true",38,3
"378",10,2,333,5,"F",1280,1,"K","true",39,3
"379",10,2,333,2,"J",2793,1,"L","true",40,3
"380",10,2,333,3,"I",2075,1,"M","true+1",41,3
"381",10,2,333,4,"J",2000,1,"O","true+1",42,3
"382",10,2,333,3,"E",3000,1,"H","true",43,3
"383",10,2,333,4,"F",3986,1,"K","true+1",44,3
"384",10,2,333,2,"F",3663,1,"I","true+1",45,3
"385",10,2,333,5,"G",4092,1,"L","true",46,3
"386",10,2,333,2,"I",1940,1,"K","true",47,3
"387",10,2,333,3,"H",4942,1,"J","true-1",48,3
"388",10,2,333,3,"I",2816,1,"L","true",49,3
"389",10,2,333,4,"F",4929,1,"J","true",51,3
"390",10,2,333,2,"E",1411,1,"F","true-1",52,3
"391",10,2,333,3,"F",3766,1,"I","true",53,3
"392",10,2,333,3,"G",3357,1,"J","true",54,3
"393",10,2,333,2,"H",1943,1,"I","true-1",55,3
"394",10,2,333,2,"G",1538,1,"I","true",56,3
"395",10,2,333,5,"G",4286,1,"L","true",57,3
"396",10,2,333,5,"I",1950,1,"N","true",58,3
"397",10,2,333,5,"F",856,1,"K","true",59,3
"398",10,2,333,4,"J",2065,1,"M","true-1",61,3
"399",10,2,333,3,"J",933,1,"M","true",62,3
"400",10,2,333,5,"H",879,1,"M","true",63,3
"401",10,2,333,3,"H",3481,1,"K","true",64,3
"402",10,2,333,4,"J",1853,1,"N","true",65,3
"403",10,2,333,2,"F",1596,1,"G","true-1",66,3
"404",10,2,333,2,"H",2758,1,"K","true+1",67,3
"405",10,2,333,5,"G",5436,1,"K","true-1",68,3
"406",10,2,333,3,"G",1879,1,"J","true",69,3
"407",10,2,333,4,"G",1717,1,"L","true+1",70,3
"408",10,2,333,4,"I",3866,1,"L","true-1",71,3
"409",10,2,333,2,"F",1500,1,"H","true",72,3
"410",10,2,333,5,"H",1867,1,"N","true+1",73,3
"411",10,2,333,2,"G",1737,1,"I","true",74,3
"412",10,2,333,3,"E",2749,1,"H","true",75,3
"413",10,2,333,5,"H",962,1,"M","true",76,3
"414",10,2,333,4,"F",3791,1,"J","true",78,3
"415",10,2,333,3,"J",1686,1,"M","true",81,3
"416",10,2,333,4,"H",3917,1,"L","true",82,3
"417",10,2,333,2,"J",1533,1,"M","true+1",83,3
"418",10,2,333,4,"F",4361,1,"I","true-1",84,3
"419",10,2,333,2,"F",1878,1,"H","true",85,3
"420",10,2,333,2,"E",2003,1,"G","true",86,3
"421",10,2,333,4,"E",3515,1,"I","true",87,3
"422",10,2,333,5,"H",2062,1,"L","true-1",88,3
"423",10,2,333,3,"G",2403,1,"I","true-1",89,3
"424",10,2,333,2,"G",1720,1,"H","true-1",90,3
"425",10,2,333,2,"E",1789,1,"H","true+1",91,3
"426",10,2,333,2,"J",1966,1,"K","true-1",92,3
"427",10,2,333,4,"E",1767,1,"J","true+1",93,3
"428",10,2,333,4,"G",3482,1,"J","true-1",94,3
"429",10,2,333,4,"E",3118,1,"H","true-1",95,3
"430",10,2,333,5,"I",1443,1,"M","true-1",96,3
"431",10,2,333,5,"I",1099,1,"M","true-1",1,4
"432",10,2,333,4,"J",2220,1,"N","true",2,4
"433",10,2,333,3,"I",1914,1,"K","true-1",3,4
"434",10,2,333,5,"E",1590,1,"I","true-1",5,4
"435",10,2,333,5,"F",2111,1,"K","true",6,4
"436",10,2,333,2,"E",2482,1,"G","true",7,4
"437",10,2,333,4,"H",3924,1,"K","true-1",8,4
"438",10,2,333,5,"E",1396,1,"J","true",9,4
"439",10,2,333,2,"I",1496,1,"J","true-1",10,4
"440",10,2,333,3,"G",2903,1,"J","true",11,4
"441",10,2,333,3,"J",2293,1,"L","true-1",12,4
"442",10,2,333,2,"E",1328,1,"G","true",13,4
"443",10,2,333,4,"J",1254,1,"O","true+1",14,4
"444",10,2,333,3,"I",2160,1,"L","true",15,4
"445",10,2,333,2,"H",1920,1,"I","true-1",16,4
"446",10,2,333,3,"G",3340,1,"K","true+1",17,4
"447",10,2,333,4,"J",1655,1,"M","true-1",18,4
"448",10,2,333,3,"E",2526,1,"I","true+1",19,4
"449",10,2,333,3,"G",1278,1,"J","true",20,4
"450",10,2,333,5,"G",3815,1,"L","true",21,4
"451",10,2,333,2,"F",2620,1,"H","true",22,4
"452",10,2,333,4,"F",2760,1,"J","true",23,4
"453",10,2,333,4,"I",4045,1,"M","true",24,4
"454",10,2,333,2,"J",1624,1,"L","true",25,4
"455",10,2,333,4,"G",3393,1,"L","true+1",26,4
"456",10,2,333,2,"G",1913,1,"J","true+1",27,4
"457",10,2,333,3,"H",3125,1,"L","true+1",28,4
"458",10,2,333,5,"F",4537,1,"L","true+1",29,4
"459",10,2,333,2,"H",2157,1,"K","true+1",30,4
"460",10,2,333,2,"G",1741,1,"I","true",31,4
"461",10,2,333,3,"I",2049,1,"L","true",32,4
"462",10,2,333,4,"E",1495,1,"I","true",33,4
"463",10,2,333,3,"F",2902,1,"I","true",34,4
"464",10,2,333,4,"E",7220,1,"H","true-1",35,4
"465",10,2,333,3,"E",2158,1,"G","true-1",36,4
"466",10,2,333,5,"H",879,1,"M","true",37,4
"467",10,2,333,4,"G",2522,1,"J","true-1",38,4
"468",10,2,333,2,"G",1690,1,"I","true",39,4
"469",10,2,333,5,"H",1200,1,"L","true-1",40,4
"470",10,2,333,3,"H",2860,1,"K","true",41,4
"471",10,2,333,3,"J",3005,1,"N","true+1",42,4
"472",10,2,333,4,"J",1175,1,"N","true",43,4
"473",10,2,333,4,"I",2420,1,"M","true",44,4
"474",10,2,333,3,"H",2601,1,"J","true-1",45,4
"475",10,2,333,2,"H",1094,1,"J","true",46,4
"476",10,2,333,3,"F",3576,1,"I","true",48,4
"477",10,2,333,3,"J",1399,1,"M","true",50,4
"478",10,2,333,3,"H",2218,1,"K","true",51,4
"479",10,2,333,5,"F",8312,1,"J","true-1",52,4
"480",10,2,333,3,"I",3040,1,"M","true+1",53,4
"481",10,2,333,4,"F",4761,1,"I","true-1",54,4
"482",10,2,333,2,"F",2147,1,"I","true+1",55,4
"483",10,2,333,2,"E",3065,1,"H","true+1",57,4
"484",10,2,333,5,"G",3248,1,"K","true-1",58,4
"485",10,2,333,3,"J",1263,1,"M","true",59,4
"486",10,2,333,5,"I",1993,1,"N","true",60,4
"487",10,2,333,3,"F",3089,1,"H","true-1",61,4
"488",10,2,333,4,"I",5559,1,"N","true+1",62,4
"489",10,2,333,2,"G",2508,1,"H","true-1",64,4
"490",10,2,333,2,"J",2316,1,"K","true-1",65,4
"491",10,2,333,2,"I",1990,1,"K","true",66,4
"492",10,2,333,5,"H",974,1,"M","true",67,4
"493",10,2,333,5,"I",2037,1,"N","true",68,4
"494",10,2,333,4,"E",1739,1,"J","true+1",69,4
"495",10,2,333,2,"J",2158,1,"L","true",70,4
"496",10,2,333,3,"G",3022,1,"I","true-1",71,4
"497",10,2,333,2,"J",1927,1,"M","true+1",72,4
"498",10,2,333,2,"F",2050,1,"G","true-1",73,4
"499",10,2,333,5,"E",1752,1,"J","true",74,4
"500",10,2,333,5,"H",2300,1,"N","true+1",75,4
"501",10,2,333,3,"F",2822,1,"J","true+1",76,4
"502",10,2,333,2,"F",2377,1,"H","true",77,4
"503",10,2,333,4,"H",4319,1,"L","true",78,4
"504",10,2,333,4,"F",4381,1,"J","true",79,4
"505",10,2,333,4,"G",4649,1,"K","true",80,4
"506",10,2,333,3,"E",3192,1,"H","true",81,4
"507",10,2,333,4,"H",1066,1,"M","true+1",82,4
"508",10,2,333,4,"F",6184,1,"K","true+1",84,4
"509",10,2,333,2,"I",3009,1,"L","true+1",85,4
"510",10,2,333,5,"E",3435,1,"K","true+1",86,4
"511",10,2,333,5,"F",1377,1,"K","true",87,4
"512",10,2,333,4,"E",2518,1,"I","true",88,4
"513",10,2,333,5,"G",1366,1,"M","true+1",89,4
"514",10,2,333,2,"I",1675,1,"K","true",90,4
"515",10,2,333,3,"E",2865,1,"H","true",91,4
"516",10,2,333,2,"E",1761,1,"F","true-1",92,4
"517",10,2,333,5,"G",3188,1,"L","true",93,4
"518",10,2,333,5,"I",1749,1,"O","true+1",94,4
"519",10,2,333,4,"I",3548,1,"L","true-1",96,4
"520",10,3,333,4,"E",2060,1,"I","true",1,2
"521",10,3,333,5,"F",897,1,"K","true",2,2
"522",10,3,333,5,"G",1180,1,"L","true",3,2
"523",10,3,333,4,"H",3369,1,"K","true-1",4,2
"524",10,3,333,2,"H",1746,1,"K","true+1",5,2
"525",10,3,333,3,"I",1830,1,"L","true",6,2
"526",10,3,333,5,"E",1413,1,"I","true-1",7,2
"527",10,3,333,5,"F",856,1,"K","true",8,2
"528",10,3,333,2,"J",2052,1,"L","true",9,2
"529",10,3,333,5,"E",2330,1,"K","true+1",10,2
"530",10,3,333,3,"E",2963,1,"H","true",11,2
"531",10,3,333,5,"H",958,1,"M","true",12,2
"532",10,3,333,2,"I",1574,1,"K","true",13,2
"533",10,3,333,4,"F",1329,1,"K","true+1",14,2
"534",10,3,333,2,"H",1735,1,"I","true-1",15,2
"535",10,3,333,3,"I",1340,1,"L","true",16,2
"536",10,3,333,3,"I",1121,1,"K","true-1",17,2
"537",10,3,333,3,"E",3825,1,"I","true+1",18,2
"538",10,3,333,2,"G",1638,1,"J","true+1",19,2
"539",10,3,333,2,"J",1438,1,"K","true-1",20,2
"540",10,3,333,2,"J",1487,1,"L","true",21,2
"541",10,3,333,3,"G",1102,1,"J","true",22,2
"542",10,3,333,4,"H",1167,1,"M","true+1",23,2
"543",10,3,333,4,"G",2813,1,"K","true",24,2
"544",10,3,333,3,"F",1967,1,"I","true",25,2
"545",10,3,333,5,"H",1096,1,"L","true-1",26,2
"546",10,3,333,5,"E",1737,1,"J","true",27,2
"547",10,3,333,3,"E",2365,1,"G","true-1",28,2
"548",10,3,333,4,"E",2036,1,"J","true+1",29,2
"549",10,3,333,5,"I",1306,1,"O","true+1",30,2
"550",10,3,333,2,"G",1522,1,"I","true",31,2
"551",10,3,333,4,"G",2799,1,"J","true-1",32,2
"552",10,3,333,3,"G",1619,1,"K","true+1",33,2
"553",10,3,333,5,"I",2460,1,"M","true-1",34,2
"554",10,3,333,2,"E",1160,1,"F","true-1",36,2
"555",10,3,333,2,"E",854,1,"G","true",37,2
"556",10,3,333,5,"F",1794,1,"L","true+1",38,2
"557",10,3,333,4,"G",1475,1,"L","true+1",39,2
"558",10,3,333,2,"F",2051,1,"H","true",40,2
"559",10,3,333,5,"F",1864,1,"J","true-1",41,2
"560",10,3,333,5,"I",1126,1,"N","true",42,2
"561",10,3,333,2,"E",1686,1,"G","true",43,2
"562",10,3,333,3,"I",1885,1,"M","true+1",44,2
"563",10,3,333,5,"H",826,1,"M","true",45,2
"564",10,3,333,2,"G",1639,1,"I","true",46,2
"565",10,3,333,3,"F",3008,1,"I","true",47,2
"566",10,3,333,4,"H",3770,1,"L","true",48,2
"567",10,3,333,2,"I",1857,1,"J","true-1",49,2
"568",10,3,333,2,"E",1791,1,"H","true+1",50,2
"569",10,3,333,5,"I",1071,1,"N","true",51,2
"570",10,3,333,2,"J",1297,1,"M","true+1",52,2
"571",10,3,333,3,"E",3097,1,"H","true",53,2
"572",10,3,333,3,"J",1119,1,"M","true",54,2
"573",10,3,333,3,"J",1055,1,"L","true-1",55,2
"574",10,3,333,3,"H",3441,1,"L","true+1",56,2
"575",10,3,333,4,"J",3240,1,"N","true",57,2
"576",10,3,333,5,"E",1239,1,"J","true",58,2
"577",10,3,333,2,"G",1202,1,"H","true-1",59,2
"578",10,3,333,2,"H",2158,1,"J","true",60,2
"579",10,3,333,4,"I",2446,1,"N","true+1",61,2
"580",10,3,333,4,"F",4289,1,"J","true",62,2
"581",10,3,333,2,"F",1297,1,"G","true-1",63,2
"582",10,3,333,2,"F",1177,1,"H","true",64,2
"583",10,3,333,4,"E",4288,1,"H","true-1",66,2
"584",10,3,333,3,"J",2415,1,"N","true+1",67,2
"585",10,3,333,4,"F",4308,1,"J","true",68,2
"586",10,3,333,4,"J",2449,1,"M","true-1",70,2
"587",10,3,333,5,"H",1765,1,"N","true+1",71,2
"588",10,3,333,3,"G",1784,1,"I","true-1",72,2
"589",10,3,333,3,"H",2985,1,"K","true",73,2
"590",10,3,333,4,"I",3764,1,"L","true-1",74,2
"591",10,3,333,3,"H",2683,1,"J","true-1",75,2
"592",10,3,333,4,"I",2564,1,"M","true",76,2
"593",10,3,333,5,"G",1106,1,"L","true",77,2
"594",10,3,333,3,"F",1795,1,"H","true-1",78,2
"595",10,3,333,2,"I",2324,1,"L","true+1",79,2
"596",10,3,333,4,"J",1357,1,"O","true+1",80,2
"597",10,3,333,4,"E",1682,1,"I","true",81,2
"598",10,3,333,2,"I",1855,1,"K","true",83,2
"599",10,3,333,3,"F",2942,1,"J","true+1",84,2
"600",10,3,333,4,"I",3588,1,"M","true",87,2
"601",10,3,333,3,"H",2317,1,"K","true",89,2
"602",10,3,333,4,"F",4390,1,"I","true-1",90,2
"603",10,3,333,2,"F",1969,1,"I","true+1",91,2
"604",10,3,333,3,"J",3723,1,"M","true",92,2
"605",10,3,333,4,"J",1188,1,"N","true",93,2
"606",10,3,333,3,"G",1105,1,"J","true",94,2
"607",10,3,333,4,"H",5184,1,"L","true",95,2
"608",10,3,333,5,"G",2935,1,"K","true-1",96,2
"609",10,3,333,3,"H",2505,1,"L","true+1",1,3
"610",10,3,333,5,"H",890,1,"M","true",2,3
"611",10,3,333,3,"H",2404,1,"K","true",3,3
"612",10,3,333,3,"F",1882,1,"H","true-1",4,3
"613",10,3,333,4,"F",2935,1,"J","true",5,3
"614",10,3,333,3,"E",1717,1,"I","true+1",6,3
"615",10,3,333,2,"G",2154,1,"I","true",7,3
"616",10,3,333,5,"G",1355,1,"M","true+1",8,3
"617",10,3,333,5,"G",2200,1,"K","true-1",10,3
"618",10,3,333,5,"I",2263,1,"N","true",11,3
"619",10,3,333,3,"E",2338,1,"H","true",12,3
"620",10,3,333,3,"I",2043,1,"L","true",13,3
"621",10,3,333,5,"I",1425,1,"M","true-1",14,3
"622",10,3,333,4,"E",2275,1,"I","true",15,3
"623",10,3,333,3,"G",3006,1,"K","true+1",16,3
"624",10,3,333,2,"I",2040,1,"J","true-1",17,3
"625",10,3,333,2,"I",1422,1,"K","true",18,3
"626",10,3,333,2,"H",1968,1,"K","true+1",19,3
"627",10,3,333,2,"E",2152,1,"H","true+1",20,3
"628",10,3,333,4,"F",2906,1,"J","true",21,3
"629",10,3,333,4,"E",2440,1,"H","true-1",22,3
"630",10,3,333,2,"F",2844,1,"I","true+1",23,3
"631",10,3,333,2,"J",2749,1,"L","true",24,3
"632",10,3,333,4,"H",3811,1,"K","true-1",25,3
"633",10,3,333,4,"F",3474,1,"I","true-1",27,3
"634",10,3,333,4,"H",3399,1,"L","true",28,3
"635",10,3,333,2,"F",1807,1,"H","true",29,3
"636",10,3,333,3,"I",4495,1,"M","true+1",30,3
"637",10,3,333,5,"F",2054,1,"L","true+1",31,3
"638",10,3,333,3,"E",2987,1,"G","true-1",32,3
"639",10,3,333,2,"G",1414,1,"I","true",33,3
"640",10,3,333,5,"F",1081,1,"K","true",34,3
"641",10,3,333,3,"J",3003,1,"M","true",35,3
"642",10,3,333,3,"G",1221,1,"J","true",36,3
"643",10,3,333,5,"H",1568,1,"L","true-1",37,3
"644",10,3,333,2,"I",2253,1,"K","true",39,3
"645",10,3,333,2,"G",1225,1,"H","true-1",40,3
"646",10,3,333,4,"I",1492,1,"N","true+1",41,3
"647",10,3,333,4,"G",3762,1,"K","true",42,3
"648",10,3,333,5,"E",1658,1,"I","true-1",43,3
"649",10,3,333,3,"G",1569,1,"I","true-1",44,3
"650",10,3,333,3,"F",2093,1,"I","true",45,3
"651",10,3,333,2,"E",1568,1,"G","true",46,3
"652",10,3,333,4,"J",2748,1,"N","true",47,3
"653",10,3,333,3,"I",2082,1,"K","true-1",48,3
"654",10,3,333,4,"H",1206,1,"M","true+1",49,3
"655",10,3,333,5,"E",2642,1,"K","true+1",50,3
"656",10,3,333,4,"I",2652,1,"M","true",51,3
"657",10,3,333,4,"I",1078,1,"M","true",52,3
"658",10,3,333,2,"H",1614,1,"I","true-1",54,3
"659",10,3,333,4,"G",1832,1,"J","true-1",55,3
"660",10,3,333,3,"J",1575,1,"M","true",56,3
"661",10,3,333,4,"E",2354,1,"J","true+1",57,3
"662",10,3,333,3,"H",2675,1,"J","true-1",59,3
"663",10,3,333,4,"J",2397,1,"M","true-1",60,3
"664",10,3,333,3,"J",1570,1,"N","true+1",61,3
"665",10,3,333,4,"I",2221,1,"L","true-1",62,3
"666",10,3,333,4,"E",1420,1,"I","true",63,3
"667",10,3,333,5,"F",1806,1,"J","true-1",64,3
"668",10,3,333,2,"J",1998,1,"K","true-1",65,3
"669",10,3,333,2,"G",1445,1,"J","true+1",66,3
"670",10,3,333,5,"I",1030,1,"O","true+1",67,3
"671",10,3,333,2,"E",1434,1,"G","true",68,3
"672",10,3,333,2,"H",2316,1,"J","true",69,3
"673",10,3,333,5,"G",1174,1,"L","true",70,3
"674",10,3,333,2,"J",2163,1,"M","true+1",71,3
"675",10,3,333,3,"E",3268,1,"H","true",72,3
"676",10,3,333,4,"F",1154,1,"K","true+1",73,3
"677",10,3,333,4,"J",912,1,"O","true+1",74,3
"678",10,3,333,3,"F",1962,1,"I","true",75,3
"679",10,3,333,5,"H",2083,1,"N","true+1",76,3
"680",10,3,333,3,"H",1656,1,"K","true",78,3
"681",10,3,333,2,"F",1856,1,"H","true",79,3
"682",10,3,333,2,"E",1303,1,"F","true-1",81,3
"683",10,3,333,3,"G",1678,1,"J","true",82,3
"684",10,3,333,3,"I",2468,1,"L","true",83,3
"685",10,3,333,4,"G",2439,1,"L","true+1",84,3
"686",10,3,333,2,"F",1451,1,"G","true-1",85,3
"687",10,3,333,2,"J",1820,1,"L","true",86,3
"688",10,3,333,5,"E",1596,1,"J","true",87,3
"689",10,3,333,5,"F",838,1,"K","true",88,3
"690",10,3,333,5,"E",979,1,"J","true",89,3
"691",10,3,333,5,"G",1274,1,"L","true",90,3
"692",10,3,333,3,"F",4386,1,"J","true+1",91,3
"693",10,3,333,4,"H",3660,1,"L","true",92,3
"694",10,3,333,2,"I",1833,1,"L","true+1",93,3
"695",10,3,333,5,"H",873,1,"M","true",94,3
"696",10,3,333,5,"I",1040,1,"N","true",96,3
"697",10,3,333,4,"I",2497,1,"M","true",1,4
"698",10,3,333,4,"J",1986,1,"M","true-1",2,4
"699",10,3,333,2,"I",1995,1,"K","true",3,4
"700",10,3,333,3,"J",1555,1,"L","true-1",4,4
"701",10,3,333,5,"E",1295,1,"I","true-1",5,4
"702",10,3,333,5,"F",1095,1,"K","true",6,4
"703",10,3,333,3,"E",2168,1,"H","true",7,4
"704",10,3,333,3,"F",1529,1,"I","true",8,4
"705",10,3,333,5,"H",886,1,"M","true",9,4
"706",10,3,333,5,"F",864,1,"K","true",10,4
"707",10,3,333,5,"E",956,1,"J","true",11,4
"708",10,3,333,2,"F",1780,1,"G","true-1",12,4
"709",10,3,333,2,"I",1478,1,"L","true+1",13,4
"710",10,3,333,4,"I",1733,1,"M","true",14,4
"711",10,3,333,3,"G",2505,1,"K","true+1",15,4
"712",10,3,333,3,"E",2618,1,"I","true+1",16,4
"713",10,3,333,2,"H",1669,1,"K","true+1",17,4
"714",10,3,333,3,"H",1100,1,"K","true",18,4
"715",10,3,333,3,"F",2028,1,"H","true-1",19,4
"716",10,3,333,4,"J",1715,1,"N","true",20,4
"717",10,3,333,3,"J",1672,1,"M","true",21,4
"718",10,3,333,3,"G",1582,1,"I","true-1",22,4
"719",10,3,333,4,"J",1306,1,"O","true+1",23,4
"720",10,3,333,4,"I",2577,1,"L","true-1",24,4
"721",10,3,333,4,"I",1006,1,"N","true+1",25,4
"722",10,3,333,4,"J",1555,1,"N","true",26,4
"723",10,3,333,2,"E",1055,1,"F","true-1",27,4
"724",10,3,333,5,"I",1026,1,"N","true",28,4
"725",10,3,333,3,"F",2710,1,"J","true+1",29,4
"726",10,3,333,3,"E",1741,1,"H","true",30,4
"727",10,3,333,3,"J",1281,1,"M","true",31,4
"728",10,3,333,2,"J",1354,1,"K","true-1",32,4
"729",10,3,333,2,"J",2065,1,"L","true",34,4
"730",10,3,333,4,"E",1958,1,"I","true",35,4
"731",10,3,333,2,"H",1295,1,"I","true-1",36,4
"732",10,3,333,4,"F",2455,1,"J","true",37,4
"733",10,3,333,5,"E",1131,1,"J","true",38,4
"734",10,3,333,3,"I",2250,1,"K","true-1",39,4
"735",10,3,333,2,"H",2407,1,"J","true",40,4
"736",10,3,333,4,"G",2828,1,"K","true",41,4
"737",10,3,333,5,"H",1455,1,"L","true-1",42,4
"738",10,3,333,2,"I",2158,1,"K","true",43,4
"739",10,3,333,2,"F",2222,1,"I","true+1",44,4
"740",10,3,333,4,"F",3373,1,"K","true+1",45,4
"741",10,3,333,2,"E",2438,1,"H","true+1",46,4
"742",10,3,333,2,"J",3850,1,"M","true+1",47,4
"743",10,3,333,5,"G",813,1,"L","true",48,4
"744",10,3,333,5,"F",1436,1,"L","true+1",49,4
"745",10,3,333,3,"I",2989,1,"M","true+1",50,4
"746",10,3,333,2,"E",1880,1,"G","true",51,4
"747",10,3,333,4,"G",3413,1,"J","true-1",52,4
"748",10,3,333,5,"F",2316,1,"J","true-1",53,4
"749",10,3,333,4,"G",1558,1,"L","true+1",54,4
"750",10,3,333,4,"H",978,1,"M","true+1",55,4
"751",10,3,333,2,"G",1336,1,"I","true",56,4
"752",10,3,333,3,"J",1902,1,"N","true+1",57,4
"753",10,3,333,3,"F",2587,1,"I","true",58,4
"754",10,3,333,4,"F",1032,1,"I","true-1",59,4
"755",10,3,333,2,"I",1356,1,"J","true-1",60,4
"756",10,3,333,2,"F",1313,1,"H","true",61,4
"757",10,3,333,3,"H",2249,1,"K","true",62,4
"758",10,3,333,2,"G",1461,1,"I","true",63,4
"759",10,3,333,2,"E",2230,1,"G","true",64,4
"760",10,3,333,3,"G",3042,1,"J","true",65,4
"761",10,3,333,4,"H",2219,1,"L","true",66,4
"762",10,3,333,2,"H",1273,1,"J","true",67,4
"763",10,3,333,2,"G",1554,1,"H","true-1",68,4
"764",10,3,333,5,"E",2009,1,"K","true+1",70,4
"765",10,3,333,5,"I",1041,1,"N","true",71,4
"766",10,3,333,5,"H",772,1,"M","true",72,4
"767",10,3,333,3,"I",2108,1,"L","true",74,4
"768",10,3,333,2,"G",3071,1,"J","true+1",75,4
"769",10,3,333,5,"I",1126,1,"M","true-1",76,4
"770",10,3,333,5,"G",966,1,"L","true",77,4
"771",10,3,333,5,"G",972,1,"K","true-1",78,4
"772",10,3,333,3,"E",2716,1,"G","true-1",80,4
"773",10,3,333,4,"E",1283,1,"J","true+1",81,4
"774",10,3,333,3,"H",2236,1,"L","true+1",82,4
"775",10,3,333,3,"I",1545,1,"L","true",84,4
"776",10,3,333,5,"G",1653,1,"M","true+1",85,4
"777",10,3,333,4,"E",3837,1,"H","true-1",86,4
"778",10,3,333,3,"G",1297,1,"J","true",87,4
"779",10,3,333,4,"H",3225,1,"K","true-1",88,4
"780",10,3,333,5,"H",1913,1,"N","true+1",89,4
"781",10,3,333,4,"G",2645,1,"K","true",90,4
"782",10,3,333,4,"F",2366,1,"J","true",91,4
"783",10,3,333,4,"H",2277,1,"L","true",92,4
"784",10,3,333,4,"E",1216,1,"I","true",93,4
"785",10,3,333,3,"H",1964,1,"J","true-1",94,4
"786",10,3,333,2,"J",1909,1,"L","true",95,4
"787",10,3,333,5,"I",1137,1,"O","true+1",96,4
"788",10,4,333,5,"H",1337,1,"L","true-1",1,2
"789",10,4,333,5,"E",1191,1,"J","true",2,2
"790",10,4,333,4,"H",3823,1,"K","true-1",3,2
"791",10,4,333,2,"I",1087,1,"J","true-1",4,2
"792",10,4,333,2,"G",880,1,"I","true",5,2
"793",10,4,333,5,"H",914,1,"M","true",6,2
"794",10,4,333,3,"J",1633,1,"N","true+1",7,2
"795",10,4,333,2,"F",2820,1,"H","true",8,2
"796",10,4,333,3,"E",2477,1,"H","true",9,2
"797",10,4,333,4,"G",1233,1,"J","true-1",10,2
"798",10,4,333,5,"G",1616,1,"M","true+1",11,2
"799",10,4,333,2,"H",1330,1,"J","true",12,2
"800",10,4,333,2,"I",1727,1,"L","true+1",13,2
"801",10,4,333,4,"G",2849,1,"K","true",14,2
"802",10,4,333,2,"H",1374,1,"I","true-1",15,2
"803",10,4,333,3,"J",2467,1,"L","true-1",16,2
"804",10,4,333,4,"J",1373,1,"N","true",17,2
"805",10,4,333,4,"E",1329,1,"I","true",18,2
"806",10,4,333,5,"F",1823,1,"J","true-1",19,2
"807",10,4,333,3,"H",2663,1,"K","true",20,2
"808",10,4,333,2,"F",1151,1,"I","true+1",21,2
"809",10,4,333,3,"H",1849,1,"J","true-1",22,2
"810",10,4,333,3,"F",1022,1,"I","true",23,2
"811",10,4,333,3,"I",1620,1,"K","true-1",24,2
"812",10,4,333,4,"I",2446,1,"M","true",25,2
"813",10,4,333,4,"H",2861,1,"L","true",26,2
"814",10,4,333,3,"G",1428,1,"I","true-1",27,2
"815",10,4,333,2,"F",1841,1,"G","true-1",28,2
"816",10,4,333,2,"E",1156,1,"G","true",29,2
"817",10,4,333,4,"I",3679,1,"L","true-1",30,2
"818",10,4,333,5,"I",1274,1,"N","true",31,2
"819",10,4,333,3,"H",1943,1,"K","true",32,2
"820",10,4,333,4,"J",4202,1,"M","true-1",33,2
"821",10,4,333,5,"E",1476,1,"K","true+1",34,2
"822",10,4,333,3,"G",977,1,"J","true",35,2
"823",10,4,333,2,"I",1361,1,"K","true",36,2
"824",10,4,333,4,"E",2459,1,"H","true-1",37,2
"825",10,4,333,3,"E",1549,1,"G","true-1",38,2
"826",10,4,333,2,"E",676,1,"G","true",39,2
"827",10,4,333,4,"I",1618,1,"N","true+1",41,2
"828",10,4,333,3,"F",1779,1,"H","true-1",42,2
"829",10,4,333,3,"F",1469,1,"I","true",43,2
"830",10,4,333,5,"I",961,1,"N","true",44,2
"831",10,4,333,3,"H",2886,1,"L","true+1",45,2
"832",10,4,333,2,"J",1521,1,"L","true",46,2
"833",10,4,333,5,"H",843,1,"M","true",47,2
"834",10,4,333,4,"J",1934,1,"N","true",48,2
"835",10,4,333,3,"G",897,1,"J","true",49,2
"836",10,4,333,4,"H",6276,1,"L","true",50,2
"837",10,4,333,3,"J",1330,1,"M","true",51,2
"838",10,4,333,2,"G",1241,1,"I","true",52,2
"839",10,4,333,3,"I",1761,1,"L","true",53,2
"840",10,4,333,2,"J",1041,1,"K","true-1",54,2
"841",10,4,333,4,"J",859,1,"O","true+1",55,2
"842",10,4,333,2,"F",1185,1,"H","true",56,2
"843",10,4,333,2,"I",1417,1,"K","true",57,2
"844",10,4,333,2,"J",2052,1,"M","true+1",58,2
"845",10,4,333,3,"F",1175,1,"J","true+1",59,2
"846",10,4,333,4,"F",941,1,"I","true-1",60,2
"847",10,4,333,4,"H",1847,1,"M","true+1",61,2
"848",10,4,333,5,"F",939,1,"K","true",62,2
"849",10,4,333,5,"E",845,1,"J","true",63,2
"850",10,4,333,2,"H",1537,1,"J","true",65,2
"851",10,4,333,5,"H",1590,1,"N","true+1",66,2
"852",10,4,333,3,"I",1419,1,"M","true+1",67,2
"853",10,4,333,2,"G",2334,1,"H","true-1",68,2
"854",10,4,333,5,"E",1588,1,"I","true-1",69,2
"855",10,4,333,3,"J",1057,1,"M","true",70,2
"856",10,4,333,2,"J",1645,1,"L","true",71,2
"857",10,4,333,4,"F",2419,1,"J","true",72,2
"858",10,4,333,2,"G",1230,1,"J","true+1",73,2
"859",10,4,333,2,"H",2028,1,"K","true+1",74,2
"860",10,4,333,5,"F",1332,1,"L","true+1",75,2
"861",10,4,333,5,"F",738,1,"K","true",76,2
"862",10,4,333,5,"G",1054,1,"K","true-1",77,2
"863",10,4,333,4,"G",1890,1,"K","true",78,2
"864",10,4,333,4,"E",868,1,"J","true+1",79,2
"865",10,4,333,3,"E",2980,1,"I","true+1",80,2
"866",10,4,333,4,"F",3396,1,"J","true",81,2
"867",10,4,333,5,"I",1876,1,"M","true-1",82,2
"868",10,4,333,5,"I",941,1,"O","true+1",83,2
"869",10,4,333,4,"I",1815,1,"M","true",84,2
"870",10,4,333,4,"E",5358,1,"I","true",85,2
"871",10,4,333,3,"E",2145,1,"H","true",86,2
"872",10,4,333,2,"E",1285,1,"H","true+1",89,2
"873",10,4,333,2,"E",1204,1,"F","true-1",90,2
"874",10,4,333,4,"G",950,1,"L","true+1",91,2
"875",10,4,333,3,"I",1754,1,"L","true",92,2
"876",10,4,333,4,"F",2905,1,"K","true+1",93,2
"877",10,4,333,5,"G",942,1,"L","true",94,2
"878",10,4,333,5,"G",641,1,"L","true",95,2
"879",10,4,333,2,"G",1106,1,"H","true-1",2,3
"880",10,4,333,5,"H",957,1,"M","true",3,3
"881",10,4,333,3,"H",2995,1,"L","true+1",4,3
"882",10,4,333,3,"I",2093,1,"L","true",5,3
"883",10,4,333,3,"F",1055,1,"I","true",6,3
"884",10,4,333,3,"F",1587,1,"J","true+1",7,3
"885",10,4,333,2,"I",1215,1,"J","true-1",8,3
"886",10,4,333,2,"J",1755,1,"L","true",9,3
"887",10,4,333,4,"E",1418,1,"J","true+1",10,3
"888",10,4,333,2,"J",1397,1,"K","true-1",11,3
"889",10,4,333,3,"J",2140,1,"L","true-1",12,3
"890",10,4,333,2,"E",1414,1,"H","true+1",14,3
"891",10,4,333,4,"F",2721,1,"J","true",15,3
"892",10,4,333,4,"I",2163,1,"M","true",16,3
"893",10,4,333,2,"J",1151,1,"L","true",17,3
"894",10,4,333,5,"E",1209,1,"J","true",18,3
"895",10,4,333,5,"E",1245,1,"J","true",19,3
"896",10,4,333,3,"I",2173,1,"L","true",20,3
"897",10,4,333,2,"E",1811,1,"G","true",21,3
"898",10,4,333,2,"F",1355,1,"I","true+1",22,3
"899",10,4,333,4,"E",3973,1,"H","true-1",23,3
"900",10,4,333,2,"F",1964,1,"H","true",24,3
"901",10,4,333,4,"F",1507,1,"K","true+1",25,3
"902",10,4,333,4,"G",1467,1,"J","true-1",26,3
"903",10,4,333,5,"I",1541,1,"M","true-1",27,3
"904",10,4,333,5,"F",843,1,"K","true",28,3
"905",10,4,333,3,"I",1495,1,"K","true-1",29,3
"906",10,4,333,2,"G",1253,1,"J","true+1",30,3
"907",10,4,333,3,"G",2801,1,"I","true-1",32,3
"908",10,4,333,4,"E",1542,1,"I","true",33,3
"909",10,4,333,2,"H",2644,1,"I","true-1",34,3
"910",10,4,333,4,"I",1451,1,"N","true+1",35,3
"911",10,4,333,5,"I",1379,1,"N","true",36,3
"912",10,4,333,3,"E",1719,1,"H","true",37,3
"913",10,4,333,4,"G",1033,1,"L","true+1",38,3
"914",10,4,333,4,"G",1889,1,"K","true",39,3
"915",10,4,333,3,"E",2268,1,"G","true-1",40,3
"916",10,4,333,5,"H",1785,1,"M","true",41,3
"917",10,4,333,5,"G",2156,1,"K","true-1",42,3
"918",10,4,333,5,"F",999,1,"K","true",43,3
"919",10,4,333,2,"G",1274,1,"I","true",44,3
"920",10,4,333,4,"G",2535,1,"K","true",45,3
"921",10,4,333,3,"G",1004,1,"K","true+1",46,3
"922",10,4,333,5,"G",983,1,"L","true",47,3
"923",10,4,333,2,"J",1545,1,"M","true+1",48,3
"924",10,4,333,3,"H",1752,1,"K","true",49,3
"925",10,4,333,5,"G",1173,1,"L","true",50,3
"926",10,4,333,4,"H",1771,1,"M","true+1",51,3
"927",10,4,333,2,"E",1044,1,"F","true-1",52,3
"928",10,4,333,4,"F",2678,1,"I","true-1",53,3
"929",10,4,333,5,"H",1761,1,"N","true+1",54,3
"930",10,4,333,2,"H",1521,1,"J","true",55,3
"931",10,4,333,4,"J",2723,1,"N","true",56,3
"932",10,4,333,2,"F",1533,1,"H","true",57,3
"933",10,4,333,5,"I",1626,1,"O","true+1",58,3
"934",10,4,333,5,"H",1220,1,"L","true-1",59,3
"935",10,4,333,4,"H",1865,1,"L","true",60,3
"936",10,4,333,5,"G",1737,1,"M","true+1",61,3
"937",10,4,333,3,"H",1308,1,"K","true",62,3
"938",10,4,333,4,"J",2366,1,"M","true-1",63,3
"939",10,4,333,3,"G",1055,1,"J","true",65,3
"940",10,4,333,3,"H",1219,1,"J","true-1",66,3
"941",10,4,333,3,"E",1871,1,"I","true+1",67,3
"942",10,4,333,4,"E",1294,1,"I","true",68,3
"943",10,4,333,3,"G",1190,1,"J","true",69,3
"944",10,4,333,5,"I",1591,1,"N","true",71,3
"945",10,4,333,3,"I",2133,1,"M","true+1",72,3
"946",10,4,333,3,"E",2300,1,"H","true",73,3
"947",10,4,333,2,"I",1797,1,"K","true",74,3
"948",10,4,333,4,"I",1714,1,"M","true",75,3
"949",10,4,333,2,"I",1723,1,"L","true+1",76,3
"950",10,4,333,3,"J",1172,1,"N","true+1",77,3
"951",10,4,333,2,"E",1349,1,"G","true",79,3
"952",10,4,333,4,"F",3038,1,"J","true",80,3
"953",10,4,333,4,"I",2630,1,"L","true-1",81,3
"954",10,4,333,2,"H",1738,1,"J","true",82,3
"955",10,4,333,5,"E",1878,1,"K","true+1",83,3
"956",10,4,333,3,"J",1518,1,"M","true",84,3
"957",10,4,333,5,"E",985,1,"I","true-1",85,3
"958",10,4,333,3,"F",1874,1,"H","true-1",86,3
"959",10,4,333,3,"J",987,1,"M","true",87,3
"960",10,4,333,3,"F",956,1,"I","true",88,3
"961",10,4,333,2,"G",1322,1,"I","true",89,3
"962",10,4,333,4,"J",1173,1,"O","true+1",91,3
"963",10,4,333,2,"F",1539,1,"G","true-1",92,3
"964",10,4,333,4,"H",2844,1,"K","true-1",95,3
"965",10,4,333,2,"G",1439,1,"I","true",1,4
"966",10,4,333,2,"I",1445,1,"K","true",2,4
"967",10,4,333,5,"G",1460,1,"K","true-1",3,4
"968",10,4,333,5,"G",701,1,"L","true",4,4
"969",10,4,333,2,"E",1395,1,"G","true",5,4
"970",10,4,333,3,"G",2323,1,"K","true+1",6,4
"971",10,4,333,5,"E",1167,1,"J","true",7,4
"972",10,4,333,3,"F",1622,1,"J","true+1",9,4
"973",10,4,333,3,"H",1537,1,"K","true",10,4
"974",10,4,333,2,"J",1222,1,"M","true+1",11,4
"975",10,4,333,4,"E",1363,1,"J","true+1",12,4
"976",10,4,333,4,"E",3885,1,"H","true-1",13,4
"977",10,4,333,2,"I",1287,1,"J","true-1",14,4
"978",10,4,333,5,"I",1262,1,"M","true-1",15,4
"979",10,4,333,2,"G",1308,1,"H","true-1",17,4
"980",10,4,333,5,"E",1926,1,"I","true-1",18,4
"981",10,4,333,4,"G",3382,1,"K","true",19,4
"982",10,4,333,4,"I",2516,1,"M","true",20,4
"983",10,4,333,3,"G",1174,1,"J","true",21,4
"984",10,4,333,3,"H",1948,1,"J","true-1",22,4
"985",10,4,333,2,"I",1815,1,"K","true",23,4
"986",10,4,333,2,"J",2774,1,"L","true",24,4
"987",10,4,333,5,"E",1959,1,"J","true",25,4
"988",10,4,333,3,"I",2205,1,"K","true-1",27,4
"989",10,4,333,4,"E",2937,1,"I","true",28,4
"990",10,4,333,3,"E",1707,1,"G","true-1",29,4
"991",10,4,333,3,"E",1650,1,"I","true+1",30,4
"992",10,4,333,3,"J",1065,1,"M","true",31,4
"993",10,4,333,4,"F",1246,1,"I","true-1",32,4
"994",10,4,333,4,"G",1558,1,"L","true+1",33,4
"995",10,4,333,4,"E",1814,1,"I","true",35,4
"996",10,4,333,5,"G",1901,1,"M","true+1",36,4
"997",10,4,333,4,"F",2466,1,"J","true",37,4
"998",10,4,333,5,"H",1092,1,"L","true-1",38,4
"999",10,4,333,4,"J",2005,1,"N","true",39,4
"1000",10,4,333,5,"F",1026,1,"K","true",40,4
"1001",10,4,333,4,"F",1098,1,"K","true+1",41,4
"1002",10,4,333,2,"F",1316,1,"H","true",42,4
"1003",10,4,333,4,"J",2055,1,"M","true-1",43,4
"1004",10,4,333,2,"F",1171,1,"G","true-1",44,4
"1005",10,4,333,3,"E",2481,1,"H","true",45,4
"1006",10,4,333,2,"G",1078,1,"I","true",46,4
"1007",10,4,333,4,"H",1157,1,"K","true-1",47,4
"1008",10,4,333,5,"F",999,1,"K","true",48,4
"1009",10,4,333,3,"G",1603,1,"J","true",49,4
"1010",10,4,333,2,"J",1346,1,"K","true-1",50,4
"1011",10,4,333,3,"F",971,1,"I","true",51,4
"1012",10,4,333,5,"I",1378,1,"N","true",52,4
"1013",10,4,333,3,"J",1598,1,"L","true-1",53,4
"1014",10,4,333,3,"I",2125,1,"L","true",54,4
"1015",10,4,333,3,"E",1155,1,"H","true",55,4
"1016",10,4,333,5,"H",1718,1,"N","true+1",56,4
"1017",10,4,333,2,"H",1550,1,"J","true",57,4
"1018",10,4,333,5,"E",1365,1,"K","true+1",58,4
"1019",10,4,333,3,"J",1457,1,"M","true",59,4
"1020",10,4,333,3,"F",2898,1,"H","true-1",60,4
"1021",10,4,333,4,"H",2566,1,"L","true",61,4
"1022",10,4,333,5,"G",1135,1,"L","true",62,4
"1023",10,4,333,4,"I",3167,1,"M","true",63,4
"1024",10,4,333,4,"H",2468,1,"L","true",64,4
"1025",10,4,333,2,"G",2694,1,"J","true+1",65,4
"1026",10,4,333,3,"I",2275,1,"M","true+1",66,4
"1027",10,4,333,4,"I",1137,1,"L","true-1",67,4
"1028",10,4,333,2,"J",3178,1,"L","true",68,4
"1029",10,4,333,5,"F",1361,1,"J","true-1",69,4
"1030",10,4,333,3,"J",1235,1,"N","true+1",70,4
"1031",10,4,333,2,"F",1371,1,"H","true",71,4
"1032",10,4,333,2,"I",2246,1,"L","true+1",72,4
"1033",10,4,333,2,"H",1856,1,"I","true-1",73,4
"1034",10,4,333,3,"I",1765,1,"L","true",74,4
"1035",10,4,333,5,"F",1397,1,"L","true+1",75,4
"1036",10,4,333,2,"H",2061,1,"K","true+1",76,4
"1037",10,4,333,3,"H",722,1,"K","true",77,4
"1038",10,4,333,3,"G",1795,1,"I","true-1",79,4
"1039",10,4,333,5,"H",807,1,"M","true",80,4
"1040",10,4,333,3,"F",781,1,"I","true",82,4
"1041",10,4,333,5,"I",854,1,"N","true",83,4
"1042",10,4,333,4,"F",2212,1,"J","true",84,4
"1043",10,4,333,2,"E",1319,1,"G","true",85,4
"1044",10,4,333,4,"J",1715,1,"N","true",86,4
"1045",10,4,333,4,"I",1987,1,"N","true+1",87,4
"1046",10,4,333,4,"H",1213,1,"M","true+1",88,4
"1047",10,4,333,5,"H",817,1,"M","true",89,4
"1048",10,4,333,2,"F",1217,1,"I","true+1",90,4
"1049",10,4,333,5,"I",1181,1,"O","true+1",91,4
"1050",10,4,333,2,"E",1588,1,"H","true+1",92,4
"1051",10,4,333,2,"H",1474,1,"J","true",93,4
"1052",10,4,333,4,"G",3485,1,"J","true-1",94,4
"1053",10,4,333,4,"J",1027,1,"O","true+1",95,4
"1054",10,4,333,2,"E",1186,1,"F","true-1",96,4
"1055",10,5,333,2,"F",1123,1,"G","true-1",1,2
"1056",10,5,333,4,"H",2522,1,"K","true-1",2,2
"1057",10,5,333,2,"F",1133,1,"H","true",3,2
"1058",10,5,333,5,"I",1116,1,"N","true",4,2
"1059",10,5,333,3,"G",1522,1,"K","true+1",5,2
"1060",10,5,333,3,"J",1127,1,"M","true",7,2
"1061",10,5,333,5,"F",1005,1,"K","true",8,2
"1062",10,5,333,5,"H",794,1,"M","true",9,2
"1063",10,5,333,2,"J",1533,1,"L","true",10,2
"1064",10,5,333,3,"J",1002,1,"M","true",11,2
"1065",10,5,333,5,"G",790,1,"L","true",12,2
"1066",10,5,333,2,"I",1498,1,"L","true+1",13,2
"1067",10,5,333,5,"G",921,1,"L","true",14,2
"1068",10,5,333,4,"J",1329,1,"N","true",15,2
"1069",10,5,333,2,"J",1366,1,"L","true",16,2
"1070",10,5,333,3,"E",1258,1,"H","true",17,2
"1071",10,5,333,3,"F",1284,1,"H","true-1",18,2
"1072",10,5,333,4,"F",2275,1,"K","true+1",19,2
"1073",10,5,333,2,"G",1364,1,"J","true+1",21,2
"1074",10,5,333,5,"F",1046,1,"L","true+1",22,2
"1075",10,5,333,5,"F",865,1,"K","true",23,2
"1076",10,5,333,4,"H",2904,1,"L","true",24,2
"1077",10,5,333,4,"E",2109,1,"I","true",25,2
"1078",10,5,333,4,"I",1434,1,"M","true",26,2
"1079",10,5,333,3,"I",1455,1,"L","true",27,2
"1080",10,5,333,3,"G",1511,1,"I","true-1",28,2
"1081",10,5,333,4,"G",3177,1,"K","true",29,2
"1082",10,5,333,4,"F",1887,1,"J","true",30,2
"1083",10,5,333,3,"H",1089,1,"K","true",31,2
"1084",10,5,333,5,"H",1091,1,"L","true-1",32,2
"1085",10,5,333,3,"J",1516,1,"N","true+1",33,2
"1086",10,5,333,2,"G",1029,1,"I","true",34,2
"1087",10,5,333,3,"I",1269,1,"K","true-1",35,2
"1088",10,5,333,3,"H",1186,1,"K","true",36,2
"1089",10,5,333,5,"E",1058,1,"K","true+1",37,2
"1090",10,5,333,4,"J",1214,1,"N","true",38,2
"1091",10,5,333,4,"G",2970,1,"J","true-1",39,2
"1092",10,5,333,4,"J",3286,1,"M","true-1",41,2
"1093",10,5,333,2,"H",1221,1,"J","true",42,2
"1094",10,5,333,3,"G",971,1,"J","true",43,2
"1095",10,5,333,3,"G",1178,1,"J","true",44,2
"1096",10,5,333,2,"E",1573,1,"G","true",46,2
"1097",10,5,333,4,"G",1503,1,"L","true+1",47,2
"1098",10,5,333,5,"E",1118,1,"I","true-1",48,2
"1099",10,5,333,2,"G",1436,1,"I","true",49,2
"1100",10,5,333,2,"H",1431,1,"K","true+1",51,2
"1101",10,5,333,3,"E",1340,1,"H","true",52,2
"1102",10,5,333,4,"I",1299,1,"N","true+1",53,2
"1103",10,5,333,2,"I",1156,1,"K","true",54,2
"1104",10,5,333,5,"F",1583,1,"J","true-1",55,2
"1105",10,5,333,2,"J",1043,1,"M","true+1",56,2
"1106",10,5,333,2,"H",1901,1,"J","true",57,2
"1107",10,5,333,5,"I",955,1,"O","true+1",58,2
"1108",10,5,333,3,"H",2903,1,"J","true-1",59,2
"1109",10,5,333,4,"H",2812,1,"L","true",60,2
"1110",10,5,333,2,"I",1403,1,"K","true",61,2
"1111",10,5,333,5,"E",932,1,"J","true",62,2
"1112",10,5,333,2,"F",1965,1,"I","true+1",63,2
"1113",10,5,333,3,"F",1019,1,"J","true+1",64,2
"1114",10,5,333,4,"I",1394,1,"M","true",65,2
"1115",10,5,333,5,"G",1433,1,"K","true-1",66,2
"1116",10,5,333,4,"I",2726,1,"L","true-1",67,2
"1117",10,5,333,5,"H",1009,1,"M","true",68,2
"1118",10,5,333,3,"F",1693,1,"I","true",69,2
"1119",10,5,333,4,"G",2610,1,"K","true",70,2
"1120",10,5,333,4,"E",1355,1,"I","true",71,2
"1121",10,5,333,4,"F",5244,1,"J","true",72,2
"1122",10,5,333,2,"H",1741,1,"I","true-1",73,2
"1123",10,5,333,4,"E",1530,1,"H","true-1",74,2
"1124",10,5,333,3,"J",1062,1,"L","true-1",75,2
"1125",10,5,333,4,"H",859,1,"M","true+1",76,2
"1126",10,5,333,3,"F",1081,1,"I","true",77,2
"1127",10,5,333,5,"I",2137,1,"M","true-1",78,2
"1128",10,5,333,5,"G",1634,1,"M","true+1",79,2
"1129",10,5,333,5,"E",845,1,"J","true",80,2
"1130",10,5,333,2,"E",1346,1,"G","true",81,2
"1131",10,5,333,3,"H",2170,1,"L","true+1",82,2
"1132",10,5,333,5,"H",1616,1,"N","true+1",83,2
"1133",10,5,333,2,"J",1794,1,"K","true-1",84,2
"1134",10,5,333,2,"I",1325,1,"J","true-1",85,2
"1135",10,5,333,4,"J",907,1,"O","true+1",86,2
"1136",10,5,333,2,"E",1024,1,"H","true+1",87,2
"1137",10,5,333,3,"I",1976,1,"M","true+1",88,2
"1138",10,5,333,3,"I",897,1,"L","true",89,2
"1139",10,5,333,4,"F",908,1,"I","true-1",90,2
"1140",10,5,333,3,"E",1658,1,"G","true-1",91,2
"1141",10,5,333,2,"E",1098,1,"F","true-1",92,2
"1142",10,5,333,4,"E",908,1,"J","true+1",93,2
"1143",10,5,333,3,"E",3810,1,"I","true+1",94,2
"1144",10,5,333,2,"G",1393,1,"H","true-1",95,2
"1145",10,5,333,2,"F",1577,1,"H","true",96,2
"1146",10,5,333,2,"F",1243,1,"H","true",1,3
"1147",10,5,333,5,"G",1331,1,"K","true-1",2,3
"1148",10,5,333,2,"J",1609,1,"L","true",3,3
"1149",10,5,333,3,"J",970,1,"M","true",4,3
"1150",10,5,333,2,"G",905,1,"I","true",5,3
"1151",10,5,333,2,"I",1318,1,"K","true",6,3
"1152",10,5,333,2,"E",1242,1,"G","true",7,3
"1153",10,5,333,5,"E",1026,1,"J","true",8,3
"1154",10,5,333,3,"H",1066,1,"K","true",9,3
"1155",10,5,333,2,"H",1432,1,"I","true-1",10,3
"1156",10,5,333,4,"G",2405,1,"K","true",11,3
"1157",10,5,333,5,"E",1166,1,"K","true+1",12,3
"1158",10,5,333,5,"H",1635,1,"N","true+1",13,3
"1159",10,5,333,3,"F",878,1,"I","true",14,3
"1160",10,5,333,4,"H",2047,1,"L","true",15,3
"1161",10,5,333,3,"I",1714,1,"L","true",16,3
"1162",10,5,333,4,"I",2138,1,"M","true",17,3
"1163",10,5,333,3,"G",2027,1,"I","true-1",18,3
"1164",10,5,333,2,"J",1459,1,"K","true-1",19,3
"1165",10,5,333,4,"F",876,1,"I","true-1",20,3
"1166",10,5,333,2,"G",1009,1,"I","true",22,3
"1167",10,5,333,4,"J",1606,1,"N","true",23,3
"1168",10,5,333,5,"I",773,1,"O","true+1",24,3
"1169",10,5,333,2,"E",1062,1,"G","true",25,3
"1170",10,5,333,5,"H",835,1,"M","true",26,3
"1171",10,5,333,4,"F",2477,1,"J","true",27,3
"1172",10,5,333,3,"E",1082,1,"G","true-1",28,3
"1173",10,5,333,3,"E",1794,1,"I","true+1",29,3
"1174",10,5,333,4,"G",1206,1,"L","true+1",30,3
"1175",10,5,333,5,"I",1121,1,"N","true",31,3
"1176",10,5,333,2,"E",2094,1,"H","true+1",32,3
"1177",10,5,333,2,"H",1241,1,"J","true",33,3
"1178",10,5,333,2,"E",1129,1,"F","true-1",34,3
"1179",10,5,333,4,"E",2217,1,"H","true-1",35,3
"1180",10,5,333,5,"F",1429,1,"J","true-1",36,3
"1181",10,5,333,5,"F",1194,1,"K","true",37,3
"1182",10,5,333,4,"I",2155,1,"N","true+1",38,3
"1183",10,5,333,3,"H",1402,1,"K","true",40,3
"1184",10,5,333,5,"H",843,1,"M","true",41,3
"1185",10,5,333,4,"I",2782,1,"L","true-1",42,3
"1186",10,5,333,2,"H",1193,1,"J","true",43,3
"1187",10,5,333,5,"E",1610,1,"I","true-1",44,3
"1188",10,5,333,5,"H",1234,1,"L","true-1",45,3
"1189",10,5,333,3,"F",1506,1,"H","true-1",46,3
"1190",10,5,333,3,"E",1771,1,"H","true",47,3
"1191",10,5,333,4,"H",2107,1,"L","true",48,3
"1192",10,5,333,2,"F",1287,1,"I","true+1",49,3
"1193",10,5,333,4,"E",1214,1,"J","true+1",50,3
"1194",10,5,333,4,"J",786,1,"O","true+1",51,3
"1195",10,5,333,4,"E",1885,1,"I","true",52,3
"1196",10,5,333,4,"J",2022,1,"M","true-1",53,3
"1197",10,5,333,4,"G",3973,1,"J","true-1",54,3
"1198",10,5,333,4,"J",1749,1,"N","true",55,3
"1199",10,5,333,3,"G",1154,1,"J","true",56,3
"1200",10,5,333,3,"I",1917,1,"M","true+1",57,3
"1201",10,5,333,5,"G",900,1,"L","true",58,3
"1202",10,5,333,2,"H",1592,1,"K","true+1",59,3
"1203",10,5,333,4,"F",3582,1,"J","true",60,3
"1204",10,5,333,3,"G",1034,1,"J","true",61,3
"1205",10,5,333,4,"F",1091,1,"K","true+1",62,3
"1206",10,5,333,3,"E",2300,1,"H","true",63,3
"1207",10,5,333,3,"H",2541,1,"L","true+1",64,3
"1208",10,5,333,2,"I",1115,1,"J","true-1",65,3
"1209",10,5,333,2,"J",1009,1,"M","true+1",66,3
"1210",10,5,333,2,"G",1837,1,"J","true+1",67,3
"1211",10,5,333,3,"F",1537,1,"J","true+1",68,3
"1212",10,5,333,5,"E",1005,1,"J","true",69,3
"1213",10,5,333,5,"G",1090,1,"L","true",70,3
"1214",10,5,333,2,"F",2179,1,"H","true",71,3
"1215",10,5,333,2,"J",2402,1,"L","true",72,3
"1216",10,5,333,2,"I",1355,1,"K","true",73,3
"1217",10,5,333,5,"F",2548,1,"L","true+1",74,3
"1218",10,5,333,4,"I",2044,1,"M","true",75,3
"1219",10,5,333,3,"J",1021,1,"M","true",76,3
"1220",10,5,333,3,"H",2548,1,"J","true-1",77,3
"1221",10,5,333,3,"J",1006,1,"L","true-1",79,3
"1222",10,5,333,4,"H",1146,1,"M","true+1",80,3
"1223",10,5,333,3,"J",1332,1,"N","true+1",81,3
"1224",10,5,333,5,"F",858,1,"K","true",82,3
"1225",10,5,333,5,"I",1496,1,"N","true",83,3
"1226",10,5,333,3,"F",2255,1,"I","true",84,3
"1227",10,5,333,4,"E",1850,1,"I","true",85,3
"1228",10,5,333,4,"G",2670,1,"K","true",86,3
"1229",10,5,333,3,"I",1415,1,"L","true",87,3
"1230",10,5,333,5,"I",1674,1,"M","true-1",88,3
"1231",10,5,333,3,"G",3100,1,"K","true+1",89,3
"1232",10,5,333,4,"H",1867,1,"K","true-1",92,3
"1233",10,5,333,2,"G",1290,1,"H","true-1",93,3
"1234",10,5,333,5,"G",1349,1,"M","true+1",95,3
"1235",10,5,333,3,"I",2502,1,"K","true-1",96,3
"1236",10,5,333,4,"I",1801,1,"M","true",1,4
"1237",10,5,333,2,"H",1742,1,"J","true",2,4
"1238",10,5,333,5,"E",1114,1,"I","true-1",3,4
"1239",10,5,333,3,"E",1807,1,"H","true",4,4
"1240",10,5,333,4,"H",1677,1,"M","true+1",5,4
"1241",10,5,333,3,"I",1559,1,"L","true",6,4
"1242",10,5,333,3,"J",1647,1,"L","true-1",7,4
"1243",10,5,333,4,"J",1268,1,"N","true",8,4
"1244",10,5,333,2,"G",1137,1,"I","true",9,4
"1245",10,5,333,2,"J",1538,1,"L","true",10,4
"1246",10,5,333,3,"E",1278,1,"H","true",11,4
"1247",10,5,333,2,"F",1524,1,"H","true",12,4
"1248",10,5,333,5,"H",1265,1,"M","true",15,4
"1249",10,5,333,2,"I",2365,1,"L","true+1",16,4
"1250",10,5,333,5,"I",1165,1,"N","true",19,4
"1251",10,5,333,3,"H",1322,1,"K","true",20,4
"1252",10,5,333,2,"H",1494,1,"I","true-1",21,4
"1253",10,5,333,4,"I",1685,1,"N","true+1",22,4
"1254",10,5,333,2,"J",2497,1,"K","true-1",23,4
"1255",10,5,333,4,"G",1025,1,"L","true+1",24,4
"1256",10,5,333,5,"I",1552,1,"O","true+1",25,4
"1257",10,5,333,5,"I",1032,1,"N","true",26,4
"1258",10,5,333,3,"F",2857,1,"J","true+1",27,4
"1259",10,5,333,3,"J",2055,1,"M","true",28,4
"1260",10,5,333,4,"G",2171,1,"K","true",29,4
"1261",10,5,333,5,"G",1017,1,"L","true",30,4
"1262",10,5,333,4,"H",1134,1,"K","true-1",31,4
"1263",10,5,333,3,"I",2302,1,"M","true+1",32,4
"1264",10,5,333,4,"I",1303,1,"L","true-1",33,4
"1265",10,5,333,3,"E",1433,1,"G","true-1",34,4
"1266",10,5,333,5,"F",1238,1,"K","true",35,4
"1267",10,5,333,4,"I",2093,1,"M","true",36,4
"1268",10,5,333,2,"G",1191,1,"I","true",37,4
"1269",10,5,333,5,"G",1143,1,"L","true",38,4
"1270",10,5,333,2,"E",1161,1,"G","true",39,4
"1271",10,5,333,4,"H",2909,1,"L","true",40,4
"1272",10,5,333,5,"F",1739,1,"K","true",41,4
"1273",10,5,333,4,"F",1031,1,"I","true-1",42,4
"1274",10,5,333,4,"G",2838,1,"K","true",43,4
"1275",10,5,333,3,"G",1426,1,"J","true",44,4
"1276",10,5,333,5,"F",1270,1,"J","true-1",45,4
"1277",10,5,333,2,"J",2186,1,"L","true",46,4
"1278",10,5,333,2,"H",1107,1,"K","true+1",47,4
"1279",10,5,333,3,"H",1302,1,"J","true-1",48,4
"1280",10,5,333,3,"I",1655,1,"L","true",49,4
"1281",10,5,333,2,"F",1686,1,"G","true-1",50,4
"1282",10,5,333,2,"E",1306,1,"F","true-1",51,4
"1283",10,5,333,3,"H",1692,1,"K","true",52,4
"1284",10,5,333,3,"J",1345,1,"M","true",53,4
"1285",10,5,333,5,"H",1729,1,"L","true-1",54,4
"1286",10,5,333,5,"E",1027,1,"J","true",55,4
"1287",10,5,333,5,"H",1915,1,"N","true+1",56,4
"1288",10,5,333,4,"G",4922,1,"J","true-1",58,4
"1289",10,5,333,5,"E",2362,1,"K","true+1",59,4
"1290",10,5,333,3,"F",916,1,"I","true",61,4
"1291",10,5,333,2,"G",1315,1,"J","true+1",62,4
"1292",10,5,333,5,"E",934,1,"J","true",63,4
"1293",10,5,333,4,"F",2751,1,"J","true",64,4
"1294",10,5,333,5,"G",1732,1,"K","true-1",65,4
"1295",10,5,333,5,"F",1455,1,"L","true+1",66,4
"1296",10,5,333,2,"J",1231,1,"M","true+1",67,4
"1297",10,5,333,3,"F",1733,1,"H","true-1",68,4
"1298",10,5,333,3,"I",1705,1,"K","true-1",69,4
"1299",10,5,333,3,"J",1279,1,"N","true+1",70,4
"1300",10,5,333,2,"I",1357,1,"J","true-1",71,4
"1301",10,5,333,4,"E",2350,1,"H","true-1",72,4
"1302",10,5,333,2,"G",1447,1,"H","true-1",73,4
"1303",10,5,333,3,"F",1118,1,"I","true",74,4
"1304",10,5,333,4,"E",1011,1,"J","true+1",75,4
"1305",10,5,333,4,"F",2673,1,"J","true",76,4
"1306",10,5,333,3,"G",1227,1,"J","true",77,4
"1307",10,5,333,4,"E",1048,1,"I","true",79,4
"1308",10,5,333,2,"F",1092,1,"I","true+1",81,4
"1309",10,5,333,2,"H",1422,1,"J","true",82,4
"1310",10,5,333,4,"J",1434,1,"N","true",83,4
"1311",10,5,333,4,"J",1055,1,"O","true+1",84,4
"1312",10,5,333,3,"G",2155,1,"I","true-1",85,4
"1313",10,5,333,4,"J",2197,1,"M","true-1",86,4
"1314",10,5,333,2,"I",1119,1,"K","true",87,4
"1315",10,5,333,3,"G",2260,1,"K","true+1",88,4
"1316",10,5,333,2,"E",1975,1,"H","true+1",89,4
"1317",10,5,333,2,"E",854,1,"G","true",90,4
"1318",10,5,333,4,"E",1051,1,"I","true",91,4
"1319",10,5,333,5,"I",1878,1,"M","true-1",92,4
"1320",10,5,333,5,"G",1495,1,"M","true+1",93,4
"1321",10,5,333,2,"F",1485,1,"H","true",94,4
"1322",10,5,333,2,"I",1179,1,"K","true",95,4
"1323",10,5,333,5,"H",1290,1,"M","true",96,4
"1324",10,6,333,4,"E",1701,1,"H","true-1",1,2
"1325",10,6,333,4,"H",2769,1,"L","true",3,2
"1326",10,6,333,4,"I",1250,1,"N","true+1",4,2
"1327",10,6,333,3,"H",1804,1,"J","true-1",5,2
"1328",10,6,333,2,"E",1058,1,"F","true-1",6,2
"1329",10,6,333,2,"G",1366,1,"J","true+1",7,2
"1330",10,6,333,3,"E",1249,1,"G","true-1",8,2
"1331",10,6,333,5,"I",1395,1,"N","true",9,2
"1332",10,6,333,4,"F",1530,1,"J","true",10,2
"1333",10,6,333,4,"J",782,1,"O","true+1",11,2
"1334",10,6,333,3,"H",769,1,"K","true",12,2
"1335",10,6,333,3,"J",1026,1,"M","true",13,2
"1336",10,6,333,4,"E",1201,1,"I","true",14,2
"1337",10,6,333,3,"J",1067,1,"N","true+1",15,2
"1338",10,6,333,4,"J",1713,1,"M","true-1",16,2
"1339",10,6,333,5,"H",802,1,"M","true",17,2
"1340",10,6,333,5,"G",823,1,"L","true",18,2
"1341",10,6,333,3,"I",1423,1,"M","true+1",19,2
"1342",10,6,333,2,"I",1259,1,"J","true-1",20,2
"1343",10,6,333,2,"F",1141,1,"G","true-1",21,2
"1344",10,6,333,4,"J",1236,1,"N","true",23,2
"1345",10,6,333,5,"H",1915,1,"N","true+1",24,2
"1346",10,6,333,3,"J",1523,1,"L","true-1",25,2
"1347",10,6,333,5,"E",1062,1,"K","true+1",26,2
"1348",10,6,333,4,"F",1347,1,"J","true",27,2
"1349",10,6,333,5,"F",2491,1,"K","true",28,2
"1350",10,6,333,2,"J",2394,1,"L","true",29,2
"1351",10,6,333,5,"I",1730,1,"N","true",30,2
"1352",10,6,333,3,"J",884,1,"M","true",31,2
"1353",10,6,333,5,"G",1589,1,"K","true-1",32,2
"1354",10,6,333,3,"G",1003,1,"J","true",33,2
"1355",10,6,333,4,"G",2934,1,"K","true",34,2
"1356",10,6,333,3,"I",1616,1,"K","true-1",35,2
"1357",10,6,333,5,"F",2122,1,"L","true+1",36,2
"1358",10,6,333,3,"G",849,1,"J","true",37,2
"1359",10,6,333,3,"F",1757,1,"J","true+1",38,2
"1360",10,6,333,5,"H",1075,1,"L","true-1",39,2
"1361",10,6,333,3,"E",1131,1,"I","true+1",40,2
"1362",10,6,333,4,"H",1066,1,"K","true-1",41,2
"1363",10,6,333,4,"E",960,1,"I","true",42,2
"1364",10,6,333,4,"I",1733,1,"M","true",43,2
"1365",10,6,333,3,"F",1321,1,"I","true",44,2
"1366",10,6,333,2,"H",1245,1,"I","true-1",45,2
"1367",10,6,333,5,"G",909,1,"L","true",46,2
"1368",10,6,333,2,"G",1058,1,"I","true",48,2
"1369",10,6,333,2,"G",894,1,"I","true",49,2
"1370",10,6,333,2,"E",1825,1,"H","true+1",50,2
"1371",10,6,333,5,"E",1002,1,"J","true",51,2
"1372",10,6,333,2,"J",1414,1,"K","true-1",52,2
"1373",10,6,333,2,"F",1729,1,"H","true",53,2
"1374",10,6,333,5,"G",1123,1,"M","true+1",54,2
"1375",10,6,333,5,"F",2186,1,"K","true",55,2
"1376",10,6,333,2,"E",1090,1,"G","true",56,2
"1377",10,6,333,3,"G",2659,1,"I","true-1",57,2
"1378",10,6,333,3,"I",1787,1,"L","true",58,2
"1379",10,6,333,2,"F",1030,1,"I","true+1",59,2
"1380",10,6,333,3,"G",1510,1,"K","true+1",60,2
"1381",10,6,333,3,"H",790,1,"K","true",61,2
"1382",10,6,333,4,"J",1618,1,"N","true",62,2
"1383",10,6,333,4,"I",1708,1,"M","true",63,2
"1384",10,6,333,5,"E",827,1,"J","true",64,2
"1385",10,6,333,3,"F",964,1,"I","true",66,2
"1386",10,6,333,2,"G",1139,1,"H","true-1",67,2
"1387",10,6,333,3,"H",1380,1,"L","true+1",68,2
"1388",10,6,333,3,"F",2138,1,"H","true-1",69,2
"1389",10,6,333,2,"H",1522,1,"J","true",70,2
"1390",10,6,333,2,"H",1269,1,"J","true",72,2
"1391",10,6,333,3,"I",1578,1,"L","true",73,2
"1392",10,6,333,2,"E",1357,1,"G","true",74,2
"1393",10,6,333,4,"F",1015,1,"K","true+1",75,2
"1394",10,6,333,4,"G",3556,1,"J","true-1",76,2
"1395",10,6,333,3,"E",1532,1,"H","true",77,2
"1396",10,6,333,4,"E",1057,1,"J","true+1",78,2
"1397",10,6,333,2,"I",1421,1,"K","true",79,2
"1398",10,6,333,4,"F",4305,1,"I","true-1",80,2
"1399",10,6,333,5,"F",1851,1,"J","true-1",81,2
"1400",10,6,333,2,"J",2473,1,"M","true+1",82,2
"1401",10,6,333,4,"G",940,1,"L","true+1",83,2
"1402",10,6,333,2,"J",1278,1,"L","true",84,2
"1403",10,6,333,5,"I",1156,1,"M","true-1",85,2
"1404",10,6,333,4,"I",2391,1,"L","true-1",86,2
"1405",10,6,333,3,"E",1086,1,"H","true",87,2
"1406",10,6,333,2,"F",1078,1,"H","true",88,2
"1407",10,6,333,5,"H",1085,1,"M","true",89,2
"1408",10,6,333,4,"H",2229,1,"L","true",90,2
"1409",10,6,333,5,"I",1309,1,"O","true+1",91,2
"1410",10,6,333,4,"H",1159,1,"M","true+1",92,2
"1411",10,6,333,5,"E",1194,1,"I","true-1",93,2
"1412",10,6,333,4,"G",2203,1,"K","true",94,2
"1413",10,6,333,2,"I",1622,1,"L","true+1",95,2
"1414",10,6,333,2,"I",1800,1,"K","true",96,2
"1415",10,6,333,5,"F",1315,1,"L","true+1",1,3
"1416",10,6,333,3,"H",723,1,"K","true",3,3
"1417",10,6,333,4,"I",1308,1,"M","true",4,3
"1418",10,6,333,5,"H",758,1,"M","true",5,3
"1419",10,6,333,2,"J",1316,1,"K","true-1",6,3
"1420",10,6,333,3,"G",785,1,"J","true",7,3
"1421",10,6,333,5,"I",715,1,"O","true+1",8,3
"1422",10,6,333,2,"I",1355,1,"J","true-1",9,3
"1423",10,6,333,3,"E",2541,1,"G","true-1",10,3
"1424",10,6,333,3,"F",867,1,"I","true",11,3
"1425",10,6,333,5,"E",1010,1,"J","true",12,3
"1426",10,6,333,3,"F",2351,1,"H","true-1",13,3
"1427",10,6,333,3,"J",856,1,"M","true",14,3
"1428",10,6,333,4,"F",2246,1,"J","true",15,3
"1429",10,6,333,4,"I",2958,1,"L","true-1",16,3
"1430",10,6,333,2,"G",996,1,"I","true",17,3
"1431",10,6,333,3,"G",1398,1,"I","true-1",18,3
"1432",10,6,333,3,"H",2654,1,"J","true-1",19,3
"1433",10,6,333,4,"H",869,1,"K","true-1",20,3
"1434",10,6,333,4,"J",1353,1,"N","true",22,3
"1435",10,6,333,5,"G",883,1,"L","true",23,3
"1436",10,6,333,2,"E",1257,1,"F","true-1",25,3
"1437",10,6,333,2,"I",2499,1,"L","true+1",26,3
"1438",10,6,333,4,"J",1115,1,"N","true",27,3
"1439",10,6,333,3,"E",1656,1,"I","true+1",28,3
"1440",10,6,333,4,"F",2304,1,"J","true",29,3
"1441",10,6,333,5,"F",1330,1,"J","true-1",30,3
"1442",10,6,333,3,"H",1273,1,"K","true",31,3
"1443",10,6,333,2,"J",1613,1,"L","true",32,3
"1444",10,6,333,4,"G",1102,1,"L","true+1",33,3
"1445",10,6,333,3,"G",1009,1,"J","true",34,3
"1446",10,6,333,4,"E",2006,1,"J","true+1",35,3
"1447",10,6,333,4,"H",1330,1,"M","true+1",36,3
"1448",10,6,333,3,"J",1102,1,"M","true",38,3
"1449",10,6,333,2,"H",1994,1,"J","true",39,3
"1450",10,6,333,2,"I",1660,1,"K","true",40,3
"1451",10,6,333,4,"E",1780,1,"I","true",41,3
"1452",10,6,333,2,"J",1382,1,"L","true",42,3
"1453",10,6,333,2,"I",2043,1,"K","true",43,3
"1454",10,6,333,3,"E",1449,1,"H","true",45,3
"1455",10,6,333,2,"H",2249,1,"I","true-1",46,3
"1456",10,6,333,3,"E",1579,1,"H","true",47,3
"1457",10,6,333,5,"I",886,1,"N","true",48,3
"1458",10,6,333,5,"G",857,1,"L","true",49,3
"1459",10,6,333,2,"F",998,1,"I","true+1",50,3
"1460",10,6,333,2,"H",1721,1,"J","true",51,3
"1461",10,6,333,4,"G",2707,1,"K","true",52,3
"1462",10,6,333,5,"E",962,1,"J","true",53,3
"1463",10,6,333,2,"G",1208,1,"I","true",54,3
"1464",10,6,333,5,"E",1236,1,"I","true-1",55,3
"1465",10,6,333,4,"I",1667,1,"M","true",56,3
"1466",10,6,333,2,"F",1196,1,"H","true",57,3
"1467",10,6,333,4,"G",3205,1,"K","true",58,3
"1468",10,6,333,3,"I",1600,1,"L","true",59,3
"1469",10,6,333,5,"I",2631,1,"N","true",60,3
"1470",10,6,333,3,"H",2482,1,"L","true+1",61,3
"1471",10,6,333,4,"J",1215,1,"O","true+1",62,3
"1472",10,6,333,5,"F",1139,1,"K","true",63,3
"1473",10,6,333,3,"F",2156,1,"J","true+1",64,3
"1474",10,6,333,4,"J",1759,1,"M","true-1",65,3
"1475",10,6,333,4,"H",3021,1,"L","true",66,3
"1476",10,6,333,4,"G",3628,1,"J","true-1",67,3
"1477",10,6,333,2,"E",1048,1,"H","true+1",68,3
"1478",10,6,333,4,"E",1907,1,"H","true-1",69,3
"1479",10,6,333,3,"J",1233,1,"N","true+1",70,3
"1480",10,6,333,4,"I",1704,1,"N","true+1",71,3
"1481",10,6,333,3,"J",2182,1,"L","true-1",72,3
"1482",10,6,333,3,"I",2485,1,"K","true-1",73,3
"1483",10,6,333,5,"H",2094,1,"N","true+1",75,3
"1484",10,6,333,2,"E",1569,1,"G","true",76,3
"1485",10,6,333,5,"H",1347,1,"M","true",77,3
"1486",10,6,333,4,"H",2709,1,"L","true",79,3
"1487",10,6,333,3,"F",964,1,"I","true",80,3
"1488",10,6,333,5,"F",1298,1,"K","true",81,3
"1489",10,6,333,2,"E",2195,1,"G","true",82,3
"1490",10,6,333,2,"J",1180,1,"M","true+1",83,3
"1491",10,6,333,3,"I",2411,1,"M","true+1",84,3
"1492",10,6,333,2,"H",973,1,"K","true+1",85,3
"1493",10,6,333,5,"G",1700,1,"K","true-1",86,3
"1494",10,6,333,4,"F",987,1,"I","true-1",87,3
"1495",10,6,333,4,"E",1580,1,"I","true",88,3
"1496",10,6,333,2,"F",1696,1,"G","true-1",89,3
"1497",10,6,333,2,"G",1901,1,"H","true-1",90,3
"1498",10,6,333,3,"G",1658,1,"K","true+1",91,3
"1499",10,6,333,5,"H",922,1,"L","true-1",92,3
"1500",10,6,333,4,"F",3482,1,"K","true+1",93,3
"1501",10,6,333,5,"E",1390,1,"K","true+1",94,3
"1502",10,6,333,2,"G",1525,1,"J","true+1",95,3
"1503",10,6,333,3,"I",1217,1,"L","true",96,3
"1504",10,6,333,3,"E",1363,1,"G","true-1",1,4
"1505",10,6,333,2,"H",1638,1,"K","true+1",2,4
"1506",10,6,333,4,"I",1034,1,"N","true+1",3,4
"1507",10,6,333,2,"F",1491,1,"H","true",4,4
"1508",10,6,333,2,"H",1753,1,"I","true-1",5,4
"1509",10,6,333,3,"E",1176,1,"H","true",6,4
"1510",10,6,333,5,"G",1262,1,"M","true+1",7,4
"1511",10,6,333,4,"H",2138,1,"L","true",8,4
"1512",10,6,333,5,"H",1298,1,"M","true",9,4
"1513",10,6,333,5,"E",1067,1,"J","true",10,4
"1514",10,6,333,3,"I",1841,1,"M","true+1",11,4
"1515",10,6,333,3,"H",901,1,"K","true",12,4
"1516",10,6,333,4,"J",1905,1,"M","true-1",13,4
"1517",10,6,333,2,"F",1230,1,"I","true+1",14,4
"1518",10,6,333,4,"E",1101,1,"I","true",15,4
"1519",10,6,333,2,"I",1232,1,"J","true-1",16,4
"1520",10,6,333,4,"F",2678,1,"K","true+1",17,4
"1521",10,6,333,4,"G",2201,1,"L","true+1",18,4
"1522",10,6,333,2,"E",1215,1,"G","true",20,4
"1523",10,6,333,3,"E",819,1,"H","true",21,4
"1524",10,6,333,2,"F",1363,1,"H","true",22,4
"1525",10,6,333,5,"E",925,1,"J","true",23,4
"1526",10,6,333,3,"E",1813,1,"I","true+1",24,4
"1527",10,6,333,5,"H",748,1,"M","true",25,4
"1528",10,6,333,2,"J",1162,1,"K","true-1",26,4
"1529",10,6,333,2,"J",1310,1,"L","true",27,4
"1530",10,6,333,5,"H",1649,1,"L","true-1",28,4
"1531",10,6,333,4,"F",2270,1,"J","true",29,4
"1532",10,6,333,5,"I",870,1,"O","true+1",31,4
"1533",10,6,333,3,"F",2397,1,"J","true+1",32,4
"1534",10,6,333,3,"F",765,1,"I","true",33,4
"1535",10,6,333,4,"F",4148,1,"J","true",34,4
"1536",10,6,333,4,"E",1510,1,"I","true",35,4
"1537",10,6,333,2,"I",1136,1,"K","true",36,4
"1538",10,6,333,5,"E",1433,1,"K","true+1",37,4
"1539",10,6,333,3,"F",942,1,"I","true",38,4
"1540",10,6,333,3,"H",889,1,"K","true",39,4
"1541",10,6,333,4,"I",1771,1,"L","true-1",40,4
"1542",10,6,333,4,"H",1564,1,"K","true-1",41,4
"1543",10,6,333,4,"F",1445,1,"I","true-1",43,4
"1544",10,6,333,3,"J",1164,1,"M","true",44,4
"1545",10,6,333,4,"J",1568,1,"N","true",45,4
"1546",10,6,333,3,"G",963,1,"J","true",46,4
"1547",10,6,333,5,"I",1513,1,"M","true-1",47,4
"1548",10,6,333,4,"E",994,1,"J","true+1",48,4
"1549",10,6,333,2,"G",1149,1,"I","true",49,4
"1550",10,6,333,4,"I",2184,1,"M","true",50,4
"1551",10,6,333,3,"I",2590,1,"K","true-1",51,4
"1552",10,6,333,3,"G",2131,1,"I","true-1",52,4
"1553",10,6,333,2,"F",1243,1,"G","true-1",53,4
"1554",10,6,333,4,"G",1467,1,"J","true-1",54,4
"1555",10,6,333,5,"E",1338,1,"I","true-1",56,4
"1556",10,6,333,4,"I",1562,1,"M","true",57,4
"1557",10,6,333,2,"H",1533,1,"J","true",58,4
"1558",10,6,333,5,"F",1570,1,"K","true",59,4
"1559",10,6,333,3,"G",1796,1,"K","true+1",60,4
"1560",10,6,333,5,"F",1457,1,"K","true",61,4
"1561",10,6,333,5,"I",954,1,"N","true",62,4
"1562",10,6,333,5,"G",1247,1,"L","true",63,4
"1563",10,6,333,2,"J",1398,1,"L","true",64,4
"1564",10,6,333,4,"H",1998,1,"L","true",65,4
"1565",10,6,333,2,"J",1178,1,"M","true+1",66,4
"1566",10,6,333,2,"E",1170,1,"F","true-1",67,4
"1567",10,6,333,3,"H",1310,1,"J","true-1",68,4
"1568",10,6,333,3,"J",1689,1,"M","true",69,4
"1569",10,6,333,3,"J",1149,1,"N","true+1",70,4
"1570",10,6,333,2,"H",1118,1,"J","true",71,4
"1571",10,6,333,2,"I",1564,1,"K","true",72,4
"1572",10,6,333,3,"J",2413,1,"L","true-1",73,4
"1573",10,6,333,4,"E",2096,1,"H","true-1",74,4
"1574",10,6,333,4,"G",3130,1,"K","true",75,4
"1575",10,6,333,5,"I",1066,1,"N","true",76,4
"1576",10,6,333,2,"G",1280,1,"H","true-1",77,4
"1577",10,6,333,3,"G",1390,1,"J","true",78,4
"1578",10,6,333,3,"H",3236,1,"L","true+1",79,4
"1579",10,6,333,4,"J",1484,1,"N","true",80,4
"1580",10,6,333,3,"F",1843,1,"H","true-1",81,4
"1581",10,6,333,2,"E",2013,1,"H","true+1",82,4
"1582",10,6,333,2,"G",1364,1,"J","true+1",83,4
"1583",10,6,333,2,"I",1534,1,"L","true+1",84,4
"1584",10,6,333,5,"H",1387,1,"N","true+1",85,4
"1585",10,6,333,4,"J",992,1,"O","true+1",86,4
"1586",10,6,333,4,"H",1620,1,"M","true+1",87,4
"1587",10,6,333,5,"F",1277,1,"L","true+1",88,4
"1588",10,6,333,2,"G",1290,1,"I","true",89,4
"1589",10,6,333,3,"I",1587,1,"L","true",90,4
"1590",10,6,333,5,"F",2511,1,"J","true-1",91,4
"1591",10,6,333,3,"I",1265,1,"L","true",92,4
"1592",10,6,333,4,"G",2477,1,"K","true",93,4
"1593",10,6,333,5,"G",1201,1,"K","true-1",94,4
"1594",10,6,333,2,"E",1043,1,"G","true",95,4
"1595",10,6,333,5,"G",829,1,"L","true",96,4
"1596",10,7,333,2,"J",1286,1,"L","true",1,2
"1597",10,7,333,5,"G",1061,1,"M","true+1",2,2
"1598",10,7,333,2,"H",2082,1,"J","true",3,2
"1599",10,7,333,2,"J",1010,1,"K","true-1",4,2
"1600",10,7,333,4,"J",1551,1,"N","true",5,2
"1601",10,7,333,2,"I",1294,1,"K","true",6,2
"1602",10,7,333,4,"F",1654,1,"J","true",7,2
"1603",10,7,333,2,"F",1100,1,"H","true",8,2
"1604",10,7,333,3,"I",1213,1,"L","true",10,2
"1605",10,7,333,4,"J",1505,1,"M","true-1",11,2
"1606",10,7,333,3,"E",1570,1,"H","true",12,2
"1607",10,7,333,4,"H",1940,1,"L","true",13,2
"1608",10,7,333,4,"E",1502,1,"J","true+1",16,2
"1609",10,7,333,4,"J",902,1,"O","true+1",17,2
"1610",10,7,333,5,"F",1442,1,"K","true",18,2
"1611",10,7,333,5,"E",1226,1,"K","true+1",19,2
"1612",10,7,333,5,"E",775,1,"J","true",20,2
"1613",10,7,333,5,"G",903,1,"L","true",21,2
"1614",10,7,333,3,"G",972,1,"J","true",22,2
"1615",10,7,333,4,"F",1259,1,"K","true+1",23,2
"1616",10,7,333,3,"J",1190,1,"N","true+1",24,2
"1617",10,7,333,3,"G",2518,1,"K","true+1",25,2
"1618",10,7,333,5,"I",1569,1,"M","true-1",26,2
"1619",10,7,333,3,"I",2507,1,"M","true+1",27,2
"1620",10,7,333,4,"G",1292,1,"J","true-1",28,2
"1621",10,7,333,3,"G",852,1,"J","true",29,2
"1622",10,7,333,5,"H",729,1,"M","true",30,2
"1623",10,7,333,3,"H",899,1,"K","true",31,2
"1624",10,7,333,2,"F",1975,1,"I","true+1",32,2
"1625",10,7,333,5,"I",950,1,"N","true",33,2
"1626",10,7,333,2,"J",1148,1,"M","true+1",35,2
"1627",10,7,333,3,"H",1733,1,"K","true",36,2
"1628",10,7,333,5,"F",1049,1,"J","true-1",37,2
"1629",10,7,333,2,"I",1092,1,"J","true-1",38,2
"1630",10,7,333,2,"G",1077,1,"J","true+1",39,2
"1631",10,7,333,4,"H",1164,1,"M","true+1",40,2
"1632",10,7,333,2,"H",1665,1,"I","true-1",41,2
"1633",10,7,333,2,"E",1154,1,"G","true",42,2
"1634",10,7,333,4,"G",1660,1,"K","true",43,2
"1635",10,7,333,2,"E",828,1,"G","true",44,2
"1636",10,7,333,3,"J",1093,1,"M","true",45,2
"1637",10,7,333,5,"H",1039,1,"N","true+1",46,2
"1638",10,7,333,5,"E",943,1,"I","true-1",47,2
"1639",10,7,333,5,"I",810,1,"N","true",48,2
"1640",10,7,333,2,"F",1201,1,"G","true-1",49,2
"1641",10,7,333,2,"G",1269,1,"I","true",50,2
"1642",10,7,333,3,"J",1057,1,"M","true",51,2
"1643",10,7,333,4,"F",1093,1,"I","true-1",52,2
"1644",10,7,333,4,"I",838,1,"N","true+1",53,2
"1645",10,7,333,2,"I",1058,1,"K","true",54,2
"1646",10,7,333,5,"G",886,1,"L","true",55,2
"1647",10,7,333,3,"E",1439,1,"H","true",56,2
"1648",10,7,333,2,"H",1237,1,"J","true",57,2
"1649",10,7,333,2,"E",1621,1,"H","true+1",58,2
"1650",10,7,333,5,"F",1126,1,"L","true+1",59,2
"1651",10,7,333,2,"J",1266,1,"L","true",61,2
"1652",10,7,333,4,"F",2077,1,"J","true",62,2
"1653",10,7,333,4,"E",1521,1,"H","true-1",64,2
"1654",10,7,333,4,"E",1796,1,"I","true",65,2
"1655",10,7,333,3,"G",2729,1,"I","true-1",66,2
"1656",10,7,333,4,"I",1771,1,"M","true",68,2
"1657",10,7,333,2,"E",1004,1,"F","true-1",69,2
"1658",10,7,333,3,"I",1409,1,"L","true",70,2
"1659",10,7,333,3,"I",1275,1,"K","true-1",71,2
"1660",10,7,333,2,"G",1588,1,"I","true",73,2
"1661",10,7,333,3,"E",2073,1,"I","true+1",74,2
"1662",10,7,333,3,"F",815,1,"I","true",75,2
"1663",10,7,333,3,"E",1326,1,"G","true-1",76,2
"1664",10,7,333,5,"H",1219,1,"L","true-1",77,2
"1665",10,7,333,4,"E",1463,1,"I","true",78,2
"1666",10,7,333,2,"G",1746,1,"H","true-1",79,2
"1667",10,7,333,5,"F",1390,1,"K","true",80,2
"1668",10,7,333,4,"I",1877,1,"L","true-1",81,2
"1669",10,7,333,5,"I",773,1,"O","true+1",82,2
"1670",10,7,333,2,"I",1230,1,"L","true+1",83,2
"1671",10,7,333,3,"F",940,1,"I","true",84,2
"1672",10,7,333,5,"H",814,1,"M","true",85,2
"1673",10,7,333,3,"H",1421,1,"J","true-1",86,2
"1674",10,7,333,4,"J",1316,1,"N","true",88,2
"1675",10,7,333,2,"H",1687,1,"K","true+1",89,2
"1676",10,7,333,5,"E",907,1,"J","true",90,2
"1677",10,7,333,5,"G",1257,1,"K","true-1",91,2
"1678",10,7,333,4,"H",1972,1,"L","true",92,2
"1679",10,7,333,4,"G",1067,1,"L","true+1",93,2
"1680",10,7,333,2,"F",1113,1,"H","true",94,2
"1681",10,7,333,3,"F",814,1,"H","true-1",95,2
"1682",10,7,333,3,"F",1053,1,"J","true+1",96,2
"1683",10,7,333,5,"I",1181,1,"M","true-1",1,3
"1684",10,7,333,5,"F",905,1,"K","true",3,3
"1685",10,7,333,2,"J",1998,1,"M","true+1",4,3
"1686",10,7,333,5,"I",882,1,"N","true",5,3
"1687",10,7,333,2,"E",779,1,"G","true",6,3
"1688",10,7,333,2,"I",997,1,"K","true",7,3
"1689",10,7,333,3,"J",2703,1,"L","true-1",8,3
"1690",10,7,333,5,"G",1406,1,"K","true-1",9,3
"1691",10,7,333,4,"G",638,1,"K","true",10,3
"1692",10,7,333,4,"E",811,1,"I","true",11,3
"1693",10,7,333,2,"F",1090,1,"H","true",12,3
"1694",10,7,333,5,"G",779,1,"L","true",13,3
"1695",10,7,333,3,"J",862,1,"M","true",15,3
"1696",10,7,333,4,"G",2748,1,"J","true-1",16,3
"1697",10,7,333,5,"H",794,1,"M","true",17,3
"1698",10,7,333,5,"E",1197,1,"I","true-1",18,3
"1699",10,7,333,4,"H",1151,1,"M","true+1",19,3
"1700",10,7,333,5,"I",737,1,"O","true+1",20,3
"1701",10,7,333,2,"H",1173,1,"J","true",21,3
"1702",10,7,333,2,"G",987,1,"J","true+1",22,3
"1703",10,7,333,2,"H",1396,1,"J","true",23,3
"1704",10,7,333,3,"G",2668,1,"K","true+1",24,3
"1705",10,7,333,2,"I",1677,1,"L","true+1",25,3
"1706",10,7,333,5,"E",879,1,"J","true",26,3
"1707",10,7,333,4,"H",1277,1,"L","true",28,3
"1708",10,7,333,3,"F",843,1,"I","true",29,3
"1709",10,7,333,4,"F",1422,1,"K","true+1",30,3
"1710",10,7,333,3,"I",1042,1,"L","true",31,3
"1711",10,7,333,5,"H",1372,1,"N","true+1",32,3
"1712",10,7,333,2,"F",895,1,"I","true+1",33,3
"1713",10,7,333,2,"J",1203,1,"L","true",34,3
"1714",10,7,333,4,"J",789,1,"O","true+1",35,3
"1715",10,7,333,4,"G",1745,1,"K","true",36,3
"1716",10,7,333,2,"G",1133,1,"H","true-1",37,3
"1717",10,7,333,3,"I",1045,1,"L","true",38,3
"1718",10,7,333,5,"F",855,1,"K","true",39,3
"1719",10,7,333,3,"E",1308,1,"I","true+1",40,3
"1720",10,7,333,4,"J",1486,1,"M","true-1",41,3
"1721",10,7,333,2,"G",1028,1,"I","true",42,3
"1722",10,7,333,4,"H",2564,1,"K","true-1",43,3
"1723",10,7,333,2,"E",1365,1,"F","true-1",44,3
"1724",10,7,333,3,"G",2009,1,"I","true-1",45,3
"1725",10,7,333,3,"J",1605,1,"N","true+1",46,3
"1726",10,7,333,5,"H",1021,1,"L","true-1",47,3
"1727",10,7,333,2,"J",1421,1,"K","true-1",48,3
"1728",10,7,333,3,"H",1287,1,"J","true-1",49,3
"1729",10,7,333,5,"I",945,1,"N","true",51,3
"1730",10,7,333,3,"F",2124,1,"J","true+1",52,3
"1731",10,7,333,5,"F",1291,1,"J","true-1",53,3
"1732",10,7,333,2,"J",1451,1,"L","true",54,3
"1733",10,7,333,4,"J",1187,1,"N","true",55,3
"1734",10,7,333,5,"E",1147,1,"J","true",56,3
"1735",10,7,333,4,"E",853,1,"J","true+1",57,3
"1736",10,7,333,2,"I",978,1,"K","true",58,3
"1737",10,7,333,4,"I",1610,1,"M","true",59,3
"1738",10,7,333,5,"G",1139,1,"M","true+1",60,3
"1739",10,7,333,2,"H",1491,1,"K","true+1",61,3
"1740",10,7,333,3,"I",2283,1,"K","true-1",62,3
"1741",10,7,333,3,"H",2050,1,"L","true+1",63,3
"1742",10,7,333,3,"J",2005,1,"M","true",64,3
"1743",10,7,333,3,"E",1873,1,"H","true",65,3
"1744",10,7,333,4,"F",1130,1,"J","true",66,3
"1745",10,7,333,2,"H",1673,1,"I","true-1",67,3
"1746",10,7,333,4,"J",1323,1,"N","true",68,3
"1747",10,7,333,4,"H",1841,1,"L","true",69,3
"1748",10,7,333,3,"E",1204,1,"G","true-1",70,3
"1749",10,7,333,2,"G",1102,1,"I","true",71,3
"1750",10,7,333,2,"F",1473,1,"G","true-1",72,3
"1751",10,7,333,5,"F",1311,1,"L","true+1",73,3
"1752",10,7,333,3,"H",1098,1,"K","true",74,3
"1753",10,7,333,2,"F",1316,1,"H","true",75,3
"1754",10,7,333,4,"F",935,1,"I","true-1",76,3
"1755",10,7,333,4,"I",1361,1,"M","true",77,3
"1756",10,7,333,5,"E",1164,1,"K","true+1",78,3
"1757",10,7,333,2,"E",1199,1,"G","true",79,3
"1758",10,7,333,5,"G",809,1,"L","true",80,3
"1759",10,7,333,5,"H",1023,1,"M","true",81,3
"1760",10,7,333,4,"E",1142,1,"I","true",82,3
"1761",10,7,333,4,"I",1255,1,"L","true-1",83,3
"1762",10,7,333,3,"G",1111,1,"J","true",85,3
"1763",10,7,333,3,"E",1699,1,"H","true",86,3
"1764",10,7,333,3,"F",1233,1,"H","true-1",87,3
"1765",10,7,333,3,"G",857,1,"J","true",88,3
"1766",10,7,333,2,"E",1230,1,"H","true+1",89,3
"1767",10,7,333,3,"I",1924,1,"M","true+1",90,3
"1768",10,7,333,4,"I",1316,1,"N","true+1",91,3
"1769",10,7,333,3,"F",855,1,"I","true",92,3
"1770",10,7,333,4,"F",2029,1,"J","true",93,3
"1771",10,7,333,3,"H",852,1,"K","true",94,3
"1772",10,7,333,4,"G",970,1,"L","true+1",95,3
"1773",10,7,333,4,"E",1657,1,"H","true-1",96,3
"1774",10,7,333,4,"J",1344,1,"N","true",1,4
"1775",10,7,333,3,"G",2049,1,"K","true+1",2,4
"1776",10,7,333,2,"F",972,1,"I","true+1",3,4
"1777",10,7,333,4,"F",1811,1,"K","true+1",4,4
"1778",10,7,333,5,"H",1434,1,"L","true-1",5,4
"1779",10,7,333,4,"F",1863,1,"J","true",6,4
"1780",10,7,333,5,"G",1149,1,"L","true",7,4
"1781",10,7,333,2,"H",1415,1,"J","true",8,4
"1782",10,7,333,2,"I",1394,1,"L","true+1",9,4
"1783",10,7,333,4,"E",1180,1,"I","true",11,4
"1784",10,7,333,2,"I",1147,1,"J","true-1",12,4
"1785",10,7,333,4,"J",924,1,"O","true+1",13,4
"1786",10,7,333,2,"E",1292,1,"H","true+1",14,4
"1787",10,7,333,3,"E",1924,1,"I","true+1",15,4
"1788",10,7,333,4,"F",2276,1,"I","true-1",16,4
"1789",10,7,333,2,"G",1298,1,"I","true",17,4
"1790",10,7,333,5,"G",931,1,"M","true+1",18,4
"1791",10,7,333,5,"E",1044,1,"I","true-1",19,4
"1792",10,7,333,4,"G",2566,1,"J","true-1",20,4
"1793",10,7,333,2,"J",999,1,"K","true-1",21,4
"1794",10,7,333,2,"G",922,1,"I","true",22,4
"1795",10,7,333,4,"G",1882,1,"K","true",23,4
"1796",10,7,333,2,"I",1588,1,"K","true",24,4
"1797",10,7,333,3,"E",1137,1,"G","true-1",25,4
"1798",10,7,333,5,"G",850,1,"L","true",26,4
"1799",10,7,333,3,"G",1366,1,"I","true-1",27,4
"1800",10,7,333,2,"F",1657,1,"G","true-1",28,4
"1801",10,7,333,3,"H",841,1,"K","true",29,4
"1802",10,7,333,4,"H",1709,1,"L","true",30,4
"1803",10,7,333,3,"F",1260,1,"H","true-1",31,4
"1804",10,7,333,5,"G",854,1,"K","true-1",32,4
"1805",10,7,333,2,"J",1916,1,"M","true+1",33,4
"1806",10,7,333,3,"I",1507,1,"K","true-1",34,4
"1807",10,7,333,3,"F",987,1,"I","true",35,4
"1808",10,7,333,4,"E",1085,1,"J","true+1",36,4
"1809",10,7,333,4,"I",1693,1,"M","true",37,4
"1810",10,7,333,2,"I",996,1,"K","true",39,4
"1811",10,7,333,2,"E",926,1,"G","true",40,4
"1812",10,7,333,2,"G",1046,1,"J","true+1",41,4
"1813",10,7,333,5,"F",937,1,"K","true",42,4
"1814",10,7,333,3,"E",995,1,"H","true",43,4
"1815",10,7,333,4,"I",1077,1,"M","true",44,4
"1816",10,7,333,2,"J",1229,1,"L","true",45,4
"1817",10,7,333,2,"H",1027,1,"K","true+1",46,4
"1818",10,7,333,3,"G",1019,1,"J","true",47,4
"1819",10,7,333,4,"G",1393,1,"L","true+1",48,4
"1820",10,7,333,4,"H",993,1,"M","true+1",49,4
"1821",10,7,333,2,"J",1067,1,"L","true",50,4
"1822",10,7,333,3,"H",1170,1,"K","true",51,4
"1823",10,7,333,2,"H",1206,1,"J","true",52,4
"1824",10,7,333,2,"E",1098,1,"F","true-1",53,4
"1825",10,7,333,5,"H",1252,1,"M","true",54,4
"1826",10,7,333,4,"F",1677,1,"J","true",55,4
"1827",10,7,333,5,"H",824,1,"N","true+1",56,4
"1828",10,7,333,3,"F",1505,1,"J","true+1",57,4
"1829",10,7,333,3,"I",970,1,"L","true",58,4
"1830",10,7,333,5,"I",817,1,"O","true+1",59,4
"1831",10,7,333,5,"F",921,1,"K","true",60,4
"1832",10,7,333,3,"I",873,1,"L","true",61,4
"1833",10,7,333,5,"F",914,1,"L","true+1",62,4
"1834",10,7,333,3,"J",1369,1,"M","true",63,4
"1835",10,7,333,4,"I",868,1,"N","true+1",64,4
"1836",10,7,333,2,"F",1100,1,"H","true",66,4
"1837",10,7,333,3,"I",1054,1,"M","true+1",67,4
"1838",10,7,333,3,"G",1162,1,"J","true",68,4
"1839",10,7,333,3,"J",1030,1,"M","true",69,4
"1840",10,7,333,2,"E",1062,1,"G","true",70,4
"1841",10,7,333,5,"E",1019,1,"K","true+1",71,4
"1842",10,7,333,4,"J",1337,1,"N","true",72,4
"1843",10,7,333,4,"H",1569,1,"L","true",73,4
"1844",10,7,333,4,"J",1427,1,"M","true-1",74,4
"1845",10,7,333,4,"H",1063,1,"K","true-1",75,4
"1846",10,7,333,3,"F",788,1,"I","true",76,4
"1847",10,7,333,3,"E",1207,1,"H","true",77,4
"1848",10,7,333,5,"I",1226,1,"N","true",78,4
"1849",10,7,333,5,"E",847,1,"J","true",79,4
"1850",10,7,333,5,"F",987,1,"J","true-1",80,4
"1851",10,7,333,3,"J",1589,1,"L","true-1",81,4
"1852",10,7,333,5,"I",1034,1,"N","true",82,4
"1853",10,7,333,3,"H",2379,1,"L","true+1",83,4
"1854",10,7,333,2,"G",2080,1,"H","true-1",84,4
"1855",10,7,333,4,"I",1353,1,"L","true-1",87,4
"1856",10,7,333,5,"I",930,1,"M","true-1",88,4
"1857",10,7,333,2,"H",1419,1,"I","true-1",89,4
"1858",10,7,333,5,"E",1126,1,"J","true",90,4
"1859",10,7,333,3,"J",1581,1,"N","true+1",91,4
"1860",10,7,333,4,"G",1849,1,"K","true",92,4
"1861",10,7,333,3,"H",1445,1,"J","true-1",93,4
"1862",10,7,333,4,"E",1588,1,"H","true-1",94,4
"1863",10,7,333,5,"H",866,1,"M","true",95,4
"1864",10,7,333,4,"E",2961,1,"I","true",96,4
"1865",10,8,333,3,"F",1300,1,"H","true-1",1,2
"1866",10,8,333,4,"G",1285,1,"K","true",2,2
"1867",10,8,333,2,"J",1204,1,"L","true",3,2
"1868",10,8,333,5,"H",726,1,"M","true",4,2
"1869",10,8,333,5,"I",1047,1,"N","true",6,2
"1870",10,8,333,5,"H",994,1,"L","true-1",7,2
"1871",10,8,333,5,"F",996,1,"K","true",8,2
"1872",10,8,333,4,"F",1239,1,"K","true+1",9,2
"1873",10,8,333,4,"H",958,1,"M","true+1",10,2
"1874",10,8,333,5,"E",803,1,"J","true",11,2
"1875",10,8,333,4,"I",1121,1,"L","true-1",12,2
"1876",10,8,333,2,"E",1006,1,"G","true",13,2
"1877",10,8,333,4,"H",1451,1,"L","true",14,2
"1878",10,8,333,4,"F",2155,1,"J","true",15,2
"1879",10,8,333,3,"E",1582,1,"I","true+1",16,2
"1880",10,8,333,4,"G",1443,1,"K","true",18,2
"1881",10,8,333,5,"F",1066,1,"L","true+1",19,2
"1882",10,8,333,4,"E",894,1,"J","true+1",20,2
"1883",10,8,333,4,"H",1258,1,"K","true-1",21,2
"1884",10,8,333,3,"E",1005,1,"H","true",22,2
"1885",10,8,333,2,"I",1026,1,"K","true",23,2
"1886",10,8,333,3,"F",753,1,"I","true",24,2
"1887",10,8,333,3,"H",1527,1,"L","true+1",25,2
"1888",10,8,333,4,"J",2058,1,"M","true-1",26,2
"1889",10,8,333,2,"F",815,1,"I","true+1",27,2
"1890",10,8,333,3,"G",942,1,"K","true+1",28,2
"1891",10,8,333,5,"I",1088,1,"M","true-1",29,2
"1892",10,8,333,3,"J",1147,1,"N","true+1",31,2
"1893",10,8,333,2,"G",708,1,"I","true",32,2
"1894",10,8,333,4,"F",1739,1,"I","true-1",33,2
"1895",10,8,333,3,"E",999,1,"G","true-1",34,2
"1896",10,8,333,4,"J",1522,1,"N","true",35,2
"1897",10,8,333,3,"G",1435,1,"J","true",37,2
"1898",10,8,333,5,"G",1904,1,"M","true+1",38,2
"1899",10,8,333,3,"J",1348,1,"M","true",39,2
"1900",10,8,333,5,"E",1757,1,"K","true+1",40,2
"1901",10,8,333,3,"J",811,1,"M","true",41,2
"1902",10,8,333,3,"H",2578,1,"J","true-1",42,2
"1903",10,8,333,5,"E",1238,1,"I","true-1",43,2
"1904",10,8,333,5,"G",1245,1,"K","true-1",44,2
"1905",10,8,333,4,"I",1269,1,"N","true+1",45,2
"1906",10,8,333,2,"F",1250,1,"G","true-1",46,2
"1907",10,8,333,5,"I",1068,1,"N","true",47,2
"1908",10,8,333,2,"I",1018,1,"J","true-1",48,2
"1909",10,8,333,4,"I",1487,1,"M","true",49,2
"1910",10,8,333,3,"F",1253,1,"J","true+1",50,2
"1911",10,8,333,2,"H",1366,1,"I","true-1",51,2
"1912",10,8,333,3,"E",866,1,"H","true",52,2
"1913",10,8,333,5,"F",1284,1,"J","true-1",54,2
"1914",10,8,333,2,"E",939,1,"G","true",55,2
"1915",10,8,333,4,"J",1069,1,"O","true+1",56,2
"1916",10,8,333,5,"H",787,1,"M","true",57,2
"1917",10,8,333,4,"H",1254,1,"L","true",58,2
"1918",10,8,333,4,"E",1001,1,"I","true",59,2
"1919",10,8,333,2,"G",980,1,"H","true-1",60,2
"1920",10,8,333,3,"I",964,1,"K","true-1",61,2
"1921",10,8,333,2,"H",907,1,"K","true+1",62,2
"1922",10,8,333,3,"H",623,1,"K","true",63,2
"1923",10,8,333,5,"G",922,1,"L","true",64,2
"1924",10,8,333,4,"E",858,1,"I","true",65,2
"1925",10,8,333,2,"F",999,1,"H","true",66,2
"1926",10,8,333,5,"G",699,1,"L","true",67,2
"1927",10,8,333,4,"G",728,1,"L","true+1",68,2
"1928",10,8,333,5,"I",850,1,"O","true+1",69,2
"1929",10,8,333,5,"H",846,1,"N","true+1",70,2
"1930",10,8,333,2,"J",1242,1,"K","true-1",71,2
"1931",10,8,333,4,"E",995,1,"H","true-1",72,2
"1932",10,8,333,5,"F",813,1,"K","true",73,2
"1933",10,8,333,2,"J",988,1,"M","true+1",74,2
"1934",10,8,333,2,"I",1070,1,"L","true+1",75,2
"1935",10,8,333,4,"F",1724,1,"J","true",76,2
"1936",10,8,333,3,"I",1253,1,"L","true",77,2
"1937",10,8,333,3,"I",1247,1,"M","true+1",78,2
"1938",10,8,333,2,"G",718,1,"I","true",80,2
"1939",10,8,333,2,"E",1822,1,"H","true+1",81,2
"1940",10,8,333,3,"G",1038,1,"I","true-1",82,2
"1941",10,8,333,2,"J",1951,1,"L","true",83,2
"1942",10,8,333,3,"I",819,1,"L","true",84,2
"1943",10,8,333,2,"E",1125,1,"F","true-1",85,2
"1944",10,8,333,2,"H",948,1,"J","true",86,2
"1945",10,8,333,3,"F",1087,1,"I","true",87,2
"1946",10,8,333,4,"G",1527,1,"J","true-1",88,2
"1947",10,8,333,2,"F",1131,1,"H","true",89,2
"1948",10,8,333,2,"H",1442,1,"J","true",90,2
"1949",10,8,333,3,"H",1322,1,"K","true",91,2
"1950",10,8,333,5,"E",718,1,"J","true",92,2
"1951",10,8,333,4,"J",1078,1,"N","true",93,2
"1952",10,8,333,4,"I",1037,1,"M","true",94,2
"1953",10,8,333,3,"G",774,1,"J","true",95,2
"1954",10,8,333,2,"I",1054,1,"K","true",96,2
"1955",10,8,333,4,"J",701,1,"O","true+1",1,3
"1956",10,8,333,5,"I",803,1,"N","true",2,3
"1957",10,8,333,2,"I",2305,1,"L","true+1",3,3
"1958",10,8,333,4,"H",1499,1,"L","true",4,3
"1959",10,8,333,3,"F",723,1,"I","true",5,3
"1960",10,8,333,3,"E",1372,1,"H","true",6,3
"1961",10,8,333,3,"F",769,1,"I","true",7,3
"1962",10,8,333,3,"J",777,1,"M","true",8,3
"1963",10,8,333,5,"H",852,1,"M","true",9,3
"1964",10,8,333,5,"H",1447,1,"N","true+1",11,3
"1965",10,8,333,4,"E",1374,1,"I","true",12,3
"1966",10,8,333,3,"J",814,1,"M","true",14,3
"1967",10,8,333,4,"F",2333,1,"I","true-1",15,3
"1968",10,8,333,2,"J",1307,1,"L","true",16,3
"1969",10,8,333,4,"I",1597,1,"M","true",17,3
"1970",10,8,333,4,"G",2244,1,"L","true+1",20,3
"1971",10,8,333,4,"F",2330,1,"J","true",23,3
"1972",10,8,333,5,"E",1199,1,"I","true-1",24,3
"1973",10,8,333,2,"J",1522,1,"L","true",26,3
"1974",10,8,333,2,"H",1581,1,"K","true+1",27,3
"1975",10,8,333,3,"H",873,1,"K","true",28,3
"1976",10,8,333,5,"G",881,1,"M","true+1",29,3
"1977",10,8,333,4,"F",931,1,"J","true",30,3
"1978",10,8,333,5,"I",1356,1,"M","true-1",31,3
"1979",10,8,333,3,"F",1693,1,"H","true-1",32,3
"1980",10,8,333,3,"E",1418,1,"I","true+1",33,3
"1981",10,8,333,2,"E",933,1,"G","true",34,3
"1982",10,8,333,2,"F",838,1,"I","true+1",35,3
"1983",10,8,333,5,"F",2025,1,"J","true-1",36,3
"1984",10,8,333,4,"H",1017,1,"K","true-1",37,3
"1985",10,8,333,2,"I",1695,1,"J","true-1",38,3
"1986",10,8,333,2,"G",828,1,"I","true",39,3
"1987",10,8,333,2,"H",1549,1,"J","true",40,3
"1988",10,8,333,2,"G",1676,1,"J","true+1",41,3
"1989",10,8,333,3,"I",1518,1,"M","true+1",42,3
"1990",10,8,333,2,"I",1247,1,"K","true",43,3
"1991",10,8,333,3,"I",817,1,"L","true",44,3
"1992",10,8,333,2,"H",1197,1,"J","true",47,3
"1993",10,8,333,4,"I",1710,1,"M","true",48,3
"1994",10,8,333,4,"G",1477,1,"K","true",49,3
"1995",10,8,333,3,"F",1121,1,"J","true+1",50,3
"1996",10,8,333,3,"G",1591,1,"I","true-1",51,3
"1997",10,8,333,5,"F",804,1,"K","true",52,3
"1998",10,8,333,5,"E",1074,1,"K","true+1",53,3
"1999",10,8,333,3,"H",1337,1,"K","true",54,3
"2000",10,8,333,2,"H",1511,1,"I","true-1",55,3
"2001",10,8,333,5,"E",849,1,"J","true",56,3
"2002",10,8,333,5,"H",853,1,"M","true",57,3
"2003",10,8,333,4,"J",1186,1,"N","true",58,3
"2004",10,8,333,5,"G",938,1,"L","true",59,3
"2005",10,8,333,3,"I",1444,1,"K","true-1",60,3
"2006",10,8,333,4,"I",1156,1,"L","true-1",61,3
"2007",10,8,333,3,"E",1358,1,"G","true-1",62,3
"2008",10,8,333,5,"G",825,1,"L","true",63,3
"2009",10,8,333,3,"I",842,1,"L","true",64,3
"2010",10,8,333,4,"H",2445,1,"L","true",65,3
"2011",10,8,333,2,"E",1020,1,"H","true+1",66,3
"2012",10,8,333,2,"I",2011,1,"K","true",67,3
"2013",10,8,333,3,"G",969,1,"J","true",68,3
"2014",10,8,333,5,"I",871,1,"O","true+1",69,3
"2015",10,8,333,4,"E",1759,1,"H","true-1",70,3
"2016",10,8,333,3,"G",1110,1,"J","true",71,3
"2017",10,8,333,2,"G",1410,1,"H","true-1",72,3
"2018",10,8,333,4,"J",2116,1,"M","true-1",73,3
"2019",10,8,333,3,"J",2306,1,"L","true-1",74,3
"2020",10,8,333,2,"G",772,1,"I","true",75,3
"2021",10,8,333,3,"G",1276,1,"K","true+1",76,3
"2022",10,8,333,3,"E",1132,1,"H","true",77,3
"2023",10,8,333,4,"G",1396,1,"J","true-1",78,3
"2024",10,8,333,2,"J",1140,1,"K","true-1",79,3
"2025",10,8,333,2,"J",1804,1,"M","true+1",80,3
"2026",10,8,333,4,"E",946,1,"J","true+1",81,3
"2027",10,8,333,4,"G",2661,1,"K","true",82,3
"2028",10,8,333,2,"E",1101,1,"G","true",83,3
"2029",10,8,333,2,"F",1959,1,"G","true-1",84,3
"2030",10,8,333,5,"F",1021,1,"K","true",85,3
"2031",10,8,333,3,"H",1403,1,"J","true-1",86,3
"2032",10,8,333,4,"J",1100,1,"N","true",87,3
"2033",10,8,333,5,"E",862,1,"J","true",88,3
"2034",10,8,333,3,"J",1325,1,"N","true+1",89,3
"2035",10,8,333,2,"F",898,1,"H","true",90,3
"2036",10,8,333,5,"I",1190,1,"N","true",91,3
"2037",10,8,333,2,"F",1022,1,"H","true",92,3
"2038",10,8,333,4,"E",868,1,"I","true",93,3
"2039",10,8,333,2,"E",1188,1,"F","true-1",94,3
"2040",10,8,333,4,"H",1564,1,"M","true+1",95,3
"2041",10,8,333,5,"H",941,1,"L","true-1",96,3
"2042",10,8,333,3,"I",888,1,"L","true",1,4
"2043",10,8,333,4,"I",819,1,"L","true-1",2,4
"2044",10,8,333,3,"F",1107,1,"H","true-1",3,4
"2045",10,8,333,5,"E",862,1,"J","true",4,4
"2046",10,8,333,5,"F",1524,1,"L","true+1",5,4
"2047",10,8,333,3,"F",1879,1,"J","true+1",6,4
"2048",10,8,333,5,"G",753,1,"L","true",7,4
"2049",10,8,333,3,"E",1198,1,"G","true-1",8,4
"2050",10,8,333,3,"I",2423,1,"M","true+1",9,4
"2051",10,8,333,5,"G",1891,1,"K","true-1",10,4
"2052",10,8,333,2,"J",1118,1,"K","true-1",11,4
"2053",10,8,333,3,"G",803,1,"J","true",12,4
"2054",10,8,333,4,"F",1922,1,"J","true",13,4
"2055",10,8,333,2,"H",2146,1,"J","true",14,4
"2056",10,8,333,4,"J",1236,1,"N","true",15,4
"2057",10,8,333,3,"E",1828,1,"I","true+1",16,4
"2058",10,8,333,4,"F",917,1,"K","true+1",17,4
"2059",10,8,333,3,"F",812,1,"I","true",18,4
"2060",10,8,333,2,"F",899,1,"H","true",19,4
"2061",10,8,333,5,"H",870,1,"N","true+1",20,4
"2062",10,8,333,3,"J",1086,1,"M","true",21,4
"2063",10,8,333,2,"I",1222,1,"K","true",22,4
"2064",10,8,333,3,"F",795,1,"I","true",23,4
"2065",10,8,333,2,"F",775,1,"H","true",24,4
"2066",10,8,333,5,"I",1121,1,"M","true-1",25,4
"2067",10,8,333,4,"G",1126,1,"L","true+1",26,4
"2068",10,8,333,4,"J",965,1,"O","true+1",27,4
"2069",10,8,333,2,"G",1515,1,"J","true+1",28,4
"2070",10,8,333,3,"J",1847,1,"L","true-1",30,4
"2071",10,8,333,2,"F",2227,1,"G","true-1",31,4
"2072",10,8,333,2,"H",2250,1,"I","true-1",32,4
"2073",10,8,333,5,"E",671,1,"J","true",34,4
"2074",10,8,333,2,"I",1667,1,"J","true-1",35,4
"2075",10,8,333,2,"H",964,1,"J","true",36,4
"2076",10,8,333,2,"G",1202,1,"H","true-1",37,4
"2077",10,8,333,2,"G",781,1,"I","true",38,4
"2078",10,8,333,2,"H",1046,1,"K","true+1",39,4
"2079",10,8,333,4,"F",825,1,"I","true-1",40,4
"2080",10,8,333,4,"I",1130,1,"M","true",41,4
"2081",10,8,333,5,"I",850,1,"O","true+1",42,4
"2082",10,8,333,2,"I",1214,1,"K","true",43,4
"2083",10,8,333,3,"J",986,1,"N","true+1",44,4
"2084",10,8,333,4,"I",1164,1,"M","true",45,4
"2085",10,8,333,4,"J",1257,1,"M","true-1",46,4
"2086",10,8,333,3,"H",1099,1,"L","true+1",47,4
"2087",10,8,333,5,"H",1125,1,"M","true",48,4
"2088",10,8,333,4,"E",1476,1,"H","true-1",49,4
"2089",10,8,333,5,"E",871,1,"I","true-1",50,4
"2090",10,8,333,4,"H",775,1,"K","true-1",51,4
"2091",10,8,333,2,"E",1207,1,"H","true+1",52,4
"2092",10,8,333,5,"H",962,1,"L","true-1",53,4
"2093",10,8,333,2,"F",1073,1,"I","true+1",54,4
"2094",10,8,333,3,"I",1639,1,"K","true-1",55,4
"2095",10,8,333,2,"J",1011,1,"M","true+1",56,4
"2096",10,8,333,4,"H",1761,1,"L","true",57,4
"2097",10,8,333,4,"J",1281,1,"N","true",58,4
"2098",10,8,333,5,"I",1030,1,"N","true",59,4
"2099",10,8,333,4,"H",894,1,"M","true+1",60,4
"2100",10,8,333,4,"E",1170,1,"I","true",61,4
"2101",10,8,333,2,"J",1783,1,"L","true",62,4
"2102",10,8,333,5,"F",882,1,"K","true",63,4
"2103",10,8,333,2,"I",875,1,"L","true+1",64,4
"2104",10,8,333,3,"H",1508,1,"K","true",65,4
"2105",10,8,333,3,"J",1316,1,"M","true",66,4
"2106",10,8,333,5,"G",1391,1,"M","true+1",67,4
"2107",10,8,333,3,"E",2198,1,"H","true",68,4
"2108",10,8,333,5,"F",1216,1,"J","true-1",69,4
"2109",10,8,333,4,"E",2107,1,"J","true+1",72,4
"2110",10,8,333,3,"H",1598,1,"J","true-1",73,4
"2111",10,8,333,2,"E",1893,1,"G","true",74,4
"2112",10,8,333,2,"E",943,1,"F","true-1",75,4
"2113",10,8,333,5,"F",818,1,"K","true",76,4
"2114",10,8,333,5,"E",850,1,"K","true+1",77,4
"2115",10,8,333,5,"G",783,1,"L","true",78,4
"2116",10,8,333,3,"I",793,1,"L","true",79,4
"2117",10,8,333,4,"H",1509,1,"L","true",80,4
"2118",10,8,333,2,"J",1366,1,"L","true",81,4
"2119",10,8,333,3,"G",1361,1,"I","true-1",82,4
"2120",10,8,333,2,"E",1276,1,"G","true",83,4
"2121",10,8,333,3,"G",961,1,"J","true",84,4
"2122",10,8,333,4,"I",1311,1,"N","true+1",85,4
"2123",10,8,333,2,"G",714,1,"I","true",86,4
"2124",10,8,333,4,"F",1962,1,"J","true",87,4
"2125",10,8,333,4,"G",1751,1,"K","true",88,4
"2126",10,8,333,3,"H",869,1,"K","true",89,4
"2127",10,8,333,3,"E",1524,1,"H","true",90,4
"2128",10,8,333,4,"G",1455,1,"K","true",91,4
"2129",10,8,333,3,"G",935,1,"K","true+1",92,4
"2130",10,8,333,5,"H",689,1,"M","true",93,4
"2131",10,8,333,4,"E",869,1,"I","true",94,4
"2132",10,8,333,5,"I",892,1,"N","true",95,4
"2133",10,8,333,4,"G",1503,1,"J","true-1",96,4
"2134",10,9,333,2,"J",1109,1,"K","true-1",1,2
"2135",10,9,333,3,"E",1207,1,"H","true",3,2
"2136",10,9,333,4,"G",1506,1,"J","true-1",4,2
"2137",10,9,333,3,"E",1147,1,"G","true-1",5,2
"2138",10,9,333,4,"H",932,1,"K","true-1",6,2
"2139",10,9,333,4,"I",1197,1,"M","true",7,2
"2140",10,9,333,3,"E",2038,1,"I","true+1",8,2
"2141",10,9,333,4,"G",896,1,"L","true+1",9,2
"2142",10,9,333,3,"G",1100,1,"J","true",10,2
"2143",10,9,333,2,"G",1063,1,"H","true-1",11,2
"2144",10,9,333,3,"H",804,1,"K","true",12,2
"2145",10,9,333,3,"G",1186,1,"K","true+1",13,2
"2146",10,9,333,4,"F",1490,1,"K","true+1",14,2
"2147",10,9,333,2,"E",953,1,"G","true",15,2
"2148",10,9,333,3,"E",1086,1,"H","true",16,2
"2149",10,9,333,4,"E",1246,1,"H","true-1",17,2
"2150",10,9,333,3,"G",798,1,"J","true",18,2
"2151",10,9,333,4,"H",899,1,"M","true+1",19,2
"2152",10,9,333,4,"I",1075,1,"L","true-1",21,2
"2153",10,9,333,2,"E",1019,1,"F","true-1",22,2
"2154",10,9,333,5,"I",1108,1,"M","true-1",24,2
"2155",10,9,333,3,"F",1632,1,"J","true+1",25,2
"2156",10,9,333,2,"H",1244,1,"I","true-1",26,2
"2157",10,9,333,2,"J",1196,1,"L","true",27,2
"2158",10,9,333,5,"E",950,1,"I","true-1",28,2
"2159",10,9,333,2,"J",1618,1,"M","true+1",29,2
"2160",10,9,333,4,"I",899,1,"M","true",30,2
"2161",10,9,333,3,"I",879,1,"M","true+1",31,2
"2162",10,9,333,3,"F",904,1,"H","true-1",32,2
"2163",10,9,333,2,"J",749,1,"L","true",33,2
"2164",10,9,333,2,"G",603,1,"I","true",34,2
"2165",10,9,333,2,"F",674,1,"H","true",35,2
"2166",10,9,333,2,"H",956,1,"K","true+1",36,2
"2167",10,9,333,4,"J",1321,1,"M","true-1",37,2
"2168",10,9,333,3,"J",1853,1,"N","true+1",38,2
"2169",10,9,333,5,"I",866,1,"N","true",39,2
"2170",10,9,333,2,"F",978,1,"G","true-1",40,2
"2171",10,9,333,5,"E",762,1,"J","true",41,2
"2172",10,9,333,4,"H",1730,1,"L","true",42,2
"2173",10,9,333,5,"F",1757,1,"J","true-1",44,2
"2174",10,9,333,4,"H",1508,1,"L","true",45,2
"2175",10,9,333,3,"F",924,1,"I","true",46,2
"2176",10,9,333,5,"G",1300,1,"K","true-1",47,2
"2177",10,9,333,5,"F",1365,1,"L","true+1",48,2
"2178",10,9,333,4,"F",1136,1,"J","true",49,2
"2179",10,9,333,4,"J",1209,1,"N","true",50,2
"2180",10,9,333,5,"E",1092,1,"K","true+1",51,2
"2181",10,9,333,3,"F",614,1,"I","true",52,2
"2182",10,9,333,3,"H",1446,1,"L","true+1",53,2
"2183",10,9,333,5,"G",717,1,"L","true",54,2
"2184",10,9,333,5,"I",645,1,"O","true+1",55,2
"2185",10,9,333,3,"J",1163,1,"L","true-1",56,2
"2186",10,9,333,2,"F",955,1,"H","true",58,2
"2187",10,9,333,3,"G",783,1,"I","true-1",59,2
"2188",10,9,333,5,"G",770,1,"M","true+1",60,2
"2189",10,9,333,2,"I",858,1,"K","true",61,2
"2190",10,9,333,4,"G",1401,1,"K","true",62,2
"2191",10,9,333,2,"G",721,1,"I","true",63,2
"2192",10,9,333,2,"E",1723,1,"H","true+1",64,2
"2193",10,9,333,4,"F",900,1,"I","true-1",65,2
"2194",10,9,333,2,"F",977,1,"I","true+1",66,2
"2195",10,9,333,5,"H",1281,1,"L","true-1",67,2
"2196",10,9,333,2,"I",1084,1,"J","true-1",70,2
"2197",10,9,333,5,"F",740,1,"K","true",71,2
"2198",10,9,333,2,"E",1369,1,"G","true",72,2
"2199",10,9,333,5,"F",972,1,"K","true",73,2
"2200",10,9,333,2,"H",1012,1,"J","true",74,2
"2201",10,9,333,4,"E",1537,1,"I","true",75,2
"2202",10,9,333,5,"G",718,1,"L","true",76,2
"2203",10,9,333,3,"I",886,1,"K","true-1",77,2
"2204",10,9,333,4,"J",1697,1,"N","true",78,2
"2205",10,9,333,5,"I",1414,1,"N","true",79,2
"2206",10,9,333,5,"E",929,1,"J","true",80,2
"2207",10,9,333,2,"G",1138,1,"J","true+1",81,2
