"","Subject","session","Ensemble","Addend","Augend","rt","Accuracy","Response","ResponseType","Trial","Block"
"1",1,1,111,4,"I",4177,1,"M","true",1,2
"2",1,1,111,4,"A",2593,1,"E","true",2,2
"3",1,1,111,3,"I",3475,1,"L","true",5,2
"4",1,1,111,2,"K",2502,1,"M","true",6,2
"5",1,1,111,3,"K",2657,1,"N","true",7,2
"6",1,1,111,2,"E",1482,1,"G","true",8,2
"7",1,1,111,3,"A",1991,1,"D","true",9,2
"8",1,1,111,2,"A",1579,1,"C","true",10,2
"9",1,1,111,2,"K",3193,1,"L","true-1",12,2
"10",1,1,111,4,"A",2788,1,"F","true+1",13,2
"11",1,1,111,2,"G",3480,1,"I","true",14,2
"12",1,1,111,2,"K",1341,1,"M","true",15,2
"13",1,1,111,3,"C",3174,1,"F","true",16,2
"14",1,1,111,2,"K",3430,1,"N","true+1",17,2
"15",1,1,111,2,"I",2786,1,"K","true",18,2
"16",1,1,111,4,"I",3589,1,"N","true+1",20,2
"17",1,1,111,3,"G",2528,1,"J","true",21,2
"18",1,1,111,5,"G",4177,1,"M","true+1",22,2
"19",1,1,111,2,"C",2625,1,"E","true",23,2
"20",1,1,111,5,"A",3533,1,"F","true",24,2
"21",1,1,111,2,"I",3693,1,"K","true",25,2
"22",1,1,111,5,"I",4222,1,"N","true",26,2
"23",1,1,111,4,"C",3105,1,"H","true+1",27,2
"24",1,1,111,3,"G",2861,1,"K","true+1",29,2
"25",1,1,111,4,"E",3477,1,"I","true",30,2
"26",1,1,111,2,"I",3411,1,"L","true+1",31,2
"27",1,1,111,4,"G",2924,1,"L","true+1",32,2
"28",1,1,111,5,"E",4994,1,"J","true",33,2
"29",1,1,111,3,"G",2704,1,"J","true",35,2
"30",1,1,111,5,"C",5339,1,"G","true-1",36,2
"31",1,1,111,5,"I",3636,1,"M","true-1",37,2
"32",1,1,111,3,"G",4178,1,"I","true-1",38,2
"33",1,1,111,4,"K",5091,1,"N","true-1",39,2
"34",1,1,111,2,"E",2939,1,"F","true-1",40,2
"35",1,1,111,5,"C",5076,1,"I","true+1",41,2
"36",1,1,111,4,"A",3186,1,"D","true-1",43,2
"37",1,1,111,5,"A",3374,1,"G","true+1",44,2
"38",1,1,111,5,"E",4716,1,"J","true",46,2
"39",1,1,111,3,"E",5954,1,"G","true-1",47,2
"40",1,1,111,4,"E",3358,1,"J","true+1",48,2
"41",1,1,111,5,"E",4747,1,"I","true-1",49,2
"42",1,1,111,5,"E",5471,1,"K","true+1",50,2
"43",1,1,111,5,"C",5266,1,"H","true",51,2
"44",1,1,111,2,"G",2214,1,"H","true-1",52,2
"45",1,1,111,3,"C",3374,1,"E","true-1",53,2
"46",1,1,111,3,"A",3463,1,"D","true",54,2
"47",1,1,111,4,"K",5370,1,"O","true",55,2
"48",1,1,111,5,"C",3891,1,"H","true",56,2
"49",1,1,111,2,"C",2379,1,"E","true",57,2
"50",1,1,111,3,"K",6020,1,"N","true",58,2
"51",1,1,111,2,"A",2756,1,"B","true-1",59,2
"52",1,1,111,2,"G",2498,1,"J","true+1",60,2
"53",1,1,111,3,"A",2795,1,"C","true-1",61,2
"54",1,1,111,5,"A",3334,1,"E","true-1",62,2
"55",1,1,111,2,"E",4266,1,"H","true+1",64,2
"56",1,1,111,5,"A",5149,1,"F","true",65,2
"57",1,1,111,2,"G",2305,1,"I","true",66,2
"58",1,1,111,5,"G",3276,1,"L","true",67,2
"59",1,1,111,4,"G",3226,1,"J","true-1",68,2
"60",1,1,111,2,"A",2261,1,"C","true",69,2
"61",1,1,111,3,"K",4925,1,"O","true+1",70,2
"62",1,1,111,5,"I",7436,1,"N","true",72,2
"63",1,1,111,4,"E",2482,1,"H","true-1",73,2
"64",1,1,111,4,"C",4472,1,"F","true-1",74,2
"65",1,1,111,4,"K",2892,1,"P","true+1",75,2
"66",1,1,111,3,"E",4580,1,"I","true+1",76,2
"67",1,1,111,3,"K",2941,1,"M","true-1",77,2
"68",1,1,111,3,"I",2621,1,"M","true+1",78,2
"69",1,1,111,2,"C",2734,1,"F","true+1",79,2
"70",1,1,111,4,"E",4313,1,"I","true",81,2
"71",1,1,111,5,"I",7349,1,"O","true+1",82,2
"72",1,1,111,3,"E",4016,1,"H","true",83,2
"73",1,1,111,2,"E",1793,1,"G","true",84,2
"74",1,1,111,4,"A",2412,1,"E","true",85,2
"75",1,1,111,3,"C",3860,1,"G","true+1",86,2
"76",1,1,111,2,"I",2861,1,"J","true-1",87,2
"77",1,1,111,2,"A",1605,1,"D","true+1",88,2
"78",1,1,111,4,"I",2659,1,"L","true-1",89,2
"79",1,1,111,4,"G",3108,1,"K","true",90,2
"80",1,1,111,3,"C",3527,1,"F","true",91,2
"81",1,1,111,5,"G",5285,1,"K","true-1",92,2
"82",1,1,111,3,"I",3667,1,"K","true-1",93,2
"83",1,1,111,4,"K",3030,1,"O","true",94,2
"84",1,1,111,4,"G",3201,1,"K","true",95,2
"85",1,1,111,3,"A",2783,1,"E","true+1",96,2
"86",1,1,111,3,"E",4679,1,"I","true+1",1,3
"87",1,1,111,3,"G",2461,1,"K","true+1",2,3
"88",1,1,111,3,"I",3013,1,"L","true",3,3
"89",1,1,111,5,"I",3134,1,"M","true-1",4,3
"90",1,1,111,3,"E",3598,1,"H","true",5,3
"91",1,1,111,5,"C",3884,1,"H","true",6,3
"92",1,1,111,3,"K",2506,1,"N","true",7,3
"93",1,1,111,5,"C",3221,1,"G","true-1",8,3
"94",1,1,111,4,"G",5243,1,"L","true+1",10,3
"95",1,1,111,4,"C",3233,1,"G","true",11,3
"96",1,1,111,2,"A",1602,1,"C","true",13,3
"97",1,1,111,4,"A",3128,1,"D","true-1",14,3
"98",1,1,111,2,"A",1625,1,"B","true-1",15,3
"99",1,1,111,4,"A",2796,1,"F","true+1",16,3
"100",1,1,111,3,"A",1914,1,"D","true",17,3
"101",1,1,111,5,"A",3712,1,"E","true-1",19,3
"102",1,1,111,3,"I",2803,1,"K","true-1",20,3
"103",1,1,111,5,"G",3865,1,"K","true-1",21,3
"104",1,1,111,4,"C",2772,1,"F","true-1",22,3
"105",1,1,111,2,"G",2781,1,"J","true+1",23,3
"106",1,1,111,3,"A",2045,1,"E","true+1",24,3
"107",1,1,111,3,"E",1427,1,"G","true-1",26,3
"108",1,1,111,2,"G",1374,1,"I","true",27,3
"109",1,1,111,4,"K",2727,1,"O","true",28,3
"110",1,1,111,5,"A",3348,1,"F","true",29,3
"111",1,1,111,2,"I",2496,1,"L","true+1",30,3
"112",1,1,111,2,"A",1888,1,"C","true",31,3
"113",1,1,111,4,"C",4097,1,"H","true+1",32,3
"114",1,1,111,3,"I",2201,1,"L","true",33,3
"115",1,1,111,2,"C",3471,1,"E","true",35,3
"116",1,1,111,2,"E",3099,1,"F","true-1",36,3
"117",1,1,111,5,"A",4132,1,"G","true+1",38,3
"118",1,1,111,5,"G",5268,1,"L","true",39,3
"119",1,1,111,2,"C",4576,1,"F","true+1",40,3
"120",1,1,111,3,"K",2216,1,"M","true-1",41,3
"121",1,1,111,4,"E",2625,1,"H","true-1",42,3
"122",1,1,111,4,"I",2428,1,"L","true-1",43,3
"123",1,1,111,5,"I",6895,1,"N","true",44,3
"124",1,1,111,3,"C",3480,1,"E","true-1",45,3
"125",1,1,111,3,"I",5430,1,"M","true+1",46,3
"126",1,1,111,3,"A",1513,1,"C","true-1",47,3
"127",1,1,111,3,"C",3988,1,"F","true",48,3
"128",1,1,111,2,"E",2328,1,"G","true",49,3
"129",1,1,111,5,"I",4373,1,"N","true",50,3
"130",1,1,111,4,"K",2246,1,"N","true-1",51,3
"131",1,1,111,2,"K",2876,1,"M","true",52,3
"132",1,1,111,2,"K",3429,1,"M","true",54,3
"133",1,1,111,2,"K",1297,1,"L","true-1",55,3
"134",1,1,111,4,"A",3060,1,"E","true",57,3
"135",1,1,111,4,"A",3378,1,"E","true",59,3
"136",1,1,111,2,"C",3667,1,"E","true",60,3
"137",1,1,111,2,"E",5199,1,"H","true+1",62,3
"138",1,1,111,2,"K",2069,1,"N","true+1",63,3
"139",1,1,111,5,"I",4416,1,"O","true+1",64,3
"140",1,1,111,4,"G",3977,1,"K","true",65,3
"141",1,1,111,5,"G",3498,1,"M","true+1",66,3
"142",1,1,111,4,"I",2970,1,"M","true",67,3
"143",1,1,111,4,"K",3827,1,"P","true+1",68,3
"144",1,1,111,5,"C",5561,1,"H","true",70,3
"145",1,1,111,4,"E",4135,1,"I","true",71,3
"146",1,1,111,4,"I",3872,1,"M","true",72,3
"147",1,1,111,3,"G",2787,1,"J","true",73,3
"148",1,1,111,5,"E",3721,1,"I","true-1",75,3
"149",1,1,111,4,"G",2711,1,"J","true-1",76,3
"150",1,1,111,3,"A",2082,1,"D","true",77,3
"151",1,1,111,3,"C",3328,1,"F","true",78,3
"152",1,1,111,2,"I",2297,1,"J","true-1",79,3
"153",1,1,111,3,"E",2585,1,"H","true",80,3
"154",1,1,111,3,"K",2228,1,"O","true+1",81,3
"155",1,1,111,3,"C",5963,1,"G","true+1",83,3
"156",1,1,111,5,"E",3057,1,"J","true",84,3
"157",1,1,111,5,"C",4985,1,"I","true+1",85,3
"158",1,1,111,2,"A",1573,1,"D","true+1",86,3
"159",1,1,111,5,"A",2597,1,"F","true",87,3
"160",1,1,111,4,"E",4955,1,"J","true+1",88,3
"161",1,1,111,2,"I",2887,1,"K","true",90,3
"162",1,1,111,5,"G",2997,1,"L","true",91,3
"163",1,1,111,2,"G",2082,1,"H","true-1",92,3
"164",1,1,111,3,"G",2680,1,"J","true",93,3
"165",1,1,111,4,"C",4174,1,"G","true",94,3
"166",1,1,111,2,"C",5130,1,"D","true-1",96,3
"167",1,1,111,5,"E",3054,1,"J","true",1,4
"168",1,1,111,4,"G",2679,1,"K","true",2,4
"169",1,1,111,2,"K",2060,1,"N","true+1",3,4
"170",1,1,111,5,"C",3197,1,"H","true",4,4
"171",1,1,111,5,"C",2323,1,"H","true",5,4
"172",1,1,111,3,"I",1664,1,"K","true-1",6,4
"173",1,1,111,3,"G",2171,1,"K","true+1",7,4
"174",1,1,111,5,"I",2700,1,"N","true",8,4
"175",1,1,111,5,"A",2780,1,"F","true",9,4
"176",1,1,111,3,"K",4549,1,"M","true-1",10,4
"177",1,1,111,2,"A",1528,1,"C","true",11,4
"178",1,1,111,4,"K",2326,1,"O","true",12,4
"179",1,1,111,4,"A",4229,1,"F","true+1",14,4
"180",1,1,111,4,"C",3232,1,"G","true",15,4
"181",1,1,111,2,"C",4387,1,"E","true",16,4
"182",1,1,111,3,"A",1990,1,"D","true",17,4
"183",1,1,111,5,"G",3809,1,"K","true-1",18,4
"184",1,1,111,5,"G",4098,1,"L","true",19,4
"185",1,1,111,3,"I",2379,1,"L","true",20,4
"186",1,1,111,2,"I",2531,1,"L","true+1",21,4
"187",1,1,111,2,"A",1644,1,"B","true-1",22,4
"188",1,1,111,3,"K",1945,1,"N","true",23,4
"189",1,1,111,2,"I",3132,1,"K","true",24,4
"190",1,1,111,5,"A",3301,1,"F","true",25,4
"191",1,1,111,5,"G",3581,1,"L","true",26,4
"192",1,1,111,5,"A",3326,1,"E","true-1",27,4
"193",1,1,111,2,"C",2548,1,"E","true",28,4
"194",1,1,111,3,"I",2135,1,"M","true+1",29,4
"195",1,1,111,4,"I",2847,1,"N","true+1",30,4
"196",1,1,111,3,"E",2325,1,"H","true",31,4
"197",1,1,111,2,"K",1403,1,"L","true-1",32,4
"198",1,1,111,3,"I",2953,1,"L","true",33,4
"199",1,1,111,2,"E",2500,1,"H","true+1",34,4
"200",1,1,111,5,"I",2028,1,"M","true-1",35,4
"201",1,1,111,4,"C",3751,1,"F","true-1",36,4
"202",1,1,111,3,"A",2595,1,"E","true+1",37,4
"203",1,1,111,4,"K",2694,1,"P","true+1",38,4
"204",1,1,111,4,"A",2038,1,"E","true",39,4
"205",1,1,111,4,"G",2596,1,"J","true-1",40,4
"206",1,1,111,4,"E",3306,1,"J","true+1",41,4
"207",1,1,111,4,"I",3149,1,"M","true",42,4
"208",1,1,111,5,"I",3592,1,"O","true+1",43,4
"209",1,1,111,2,"A",2523,1,"C","true",44,4
"210",1,1,111,3,"C",3009,1,"F","true",45,4
"211",1,1,111,4,"I",2290,1,"L","true-1",46,4
"212",1,1,111,3,"C",2738,1,"F","true",47,4
"213",1,1,111,2,"G",3179,1,"I","true",48,4
"214",1,1,111,5,"I",3659,1,"N","true",49,4
"215",1,1,111,2,"I",2468,1,"K","true",50,4
"216",1,1,111,4,"E",2559,1,"I","true",51,4
"217",1,1,111,3,"K",3085,1,"N","true",52,4
"218",1,1,111,4,"G",6135,1,"L","true+1",55,4
"219",1,1,111,2,"K",1967,1,"M","true",56,4
"220",1,1,111,2,"E",1501,1,"G","true",57,4
"221",1,1,111,3,"C",2349,1,"G","true+1",58,4
"222",1,1,111,3,"G",2337,1,"J","true",59,4
"223",1,1,111,3,"A",2129,1,"C","true-1",60,4
"224",1,1,111,3,"E",2677,1,"H","true",62,4
"225",1,1,111,4,"C",6234,1,"G","true",63,4
"226",1,1,111,2,"G",2430,1,"J","true+1",64,4
"227",1,1,111,3,"A",2545,1,"D","true",65,4
"228",1,1,111,2,"G",2228,1,"I","true",66,4
"229",1,1,111,4,"A",6975,1,"E","true",67,4
"230",1,1,111,3,"C",3928,1,"E","true-1",68,4
"231",1,1,111,4,"K",3233,1,"N","true-1",69,4
"232",1,1,111,5,"E",5244,1,"J","true",70,4
"233",1,1,111,5,"E",3394,1,"K","true+1",71,4
"234",1,1,111,2,"G",2461,1,"H","true-1",72,4
"235",1,1,111,4,"A",2198,1,"D","true-1",73,4
"236",1,1,111,5,"G",5179,1,"M","true+1",74,4
"237",1,1,111,4,"G",4173,1,"K","true",77,4
"238",1,1,111,2,"E",1806,1,"G","true",78,4
"239",1,1,111,3,"E",2180,1,"G","true-1",79,4
"240",1,1,111,2,"E",2388,1,"F","true-1",80,4
"241",1,1,111,3,"G",3447,1,"J","true",81,4
"242",1,1,111,4,"E",3101,1,"H","true-1",82,4
"243",1,1,111,5,"C",5270,1,"I","true+1",83,4
"244",1,1,111,2,"I",1721,1,"J","true-1",84,4
"245",1,1,111,4,"C",4463,1,"H","true+1",85,4
"246",1,1,111,4,"I",3370,1,"M","true",86,4
"247",1,1,111,2,"A",2427,1,"D","true+1",87,4
"248",1,1,111,2,"C",3990,1,"F","true+1",88,4
"249",1,1,111,2,"K",2121,1,"M","true",89,4
"250",1,1,111,4,"E",3111,1,"I","true",90,4
"251",1,1,111,5,"E",4538,1,"I","true-1",91,4
"252",1,1,111,3,"G",5177,1,"I","true-1",93,4
"253",1,1,111,5,"A",2705,1,"G","true+1",94,4
"254",1,1,111,2,"C",2813,1,"D","true-1",95,4
"255",1,1,111,3,"K",2245,1,"O","true+1",96,4
"256",1,2,111,5,"I",3677,1,"N","true",1,2
"257",1,2,111,2,"I",1616,1,"J","true-1",2,2
"258",1,2,111,5,"C",3166,1,"H","true",3,2
"259",1,2,111,4,"E",3630,1,"H","true-1",4,2
"260",1,2,111,2,"A",2403,1,"D","true+1",5,2
"261",1,2,111,2,"A",1330,1,"B","true-1",6,2
"262",1,2,111,4,"K",4963,1,"N","true-1",7,2
"263",1,2,111,4,"C",3099,1,"G","true",8,2
"264",1,2,111,5,"A",3429,1,"F","true",9,2
"265",1,2,111,5,"G",2899,1,"K","true-1",10,2
"266",1,2,111,5,"I",3453,1,"M","true-1",11,2
"267",1,2,111,5,"G",4034,1,"M","true+1",12,2
"268",1,2,111,5,"E",3039,1,"J","true",13,2
"269",1,2,111,4,"C",3157,1,"H","true+1",14,2
"270",1,2,111,2,"E",1909,1,"G","true",15,2
"271",1,2,111,3,"C",3064,1,"F","true",16,2
"272",1,2,111,4,"K",3212,1,"O","true",17,2
"273",1,2,111,4,"A",2394,1,"E","true",18,2
"274",1,2,111,4,"I",3048,1,"M","true",19,2
"275",1,2,111,4,"G",3021,1,"L","true+1",20,2
"276",1,2,111,2,"E",1891,1,"F","true-1",21,2
"277",1,2,111,3,"I",2198,1,"K","true-1",22,2
"278",1,2,111,3,"A",2620,1,"C","true-1",23,2
"279",1,2,111,2,"I",1882,1,"L","true+1",24,2
"280",1,2,111,2,"K",1485,1,"M","true",25,2
"281",1,2,111,3,"E",1697,1,"H","true",26,2
"282",1,2,111,4,"K",2467,1,"P","true+1",27,2
"283",1,2,111,3,"A",2111,1,"D","true",28,2
"284",1,2,111,2,"K",1377,1,"L","true-1",29,2
"285",1,2,111,3,"E",1680,1,"G","true-1",30,2
"286",1,2,111,3,"K",2411,1,"N","true",31,2
"287",1,2,111,5,"I",3049,1,"N","true",32,2
"288",1,2,111,3,"G",2157,1,"J","true",33,2
"289",1,2,111,2,"E",2534,1,"H","true+1",34,2
"290",1,2,111,5,"C",2911,1,"H","true",35,2
"291",1,2,111,3,"E",2721,1,"I","true+1",36,2
"292",1,2,111,3,"G",3867,1,"K","true+1",37,2
"293",1,2,111,2,"A",1278,1,"C","true",39,2
"294",1,2,111,3,"A",2093,1,"E","true+1",41,2
"295",1,2,111,5,"A",1832,1,"F","true",42,2
"296",1,2,111,5,"A",1458,1,"G","true+1",44,2
"297",1,2,111,3,"K",2695,1,"N","true",45,2
"298",1,2,111,5,"C",2681,1,"G","true-1",46,2
"299",1,2,111,3,"K",2116,1,"O","true+1",47,2
"300",1,2,111,4,"K",1350,1,"O","true",48,2
"301",1,2,111,3,"I",3079,1,"M","true+1",49,2
"302",1,2,111,2,"C",2258,1,"F","true+1",50,2
"303",1,2,111,4,"E",4466,1,"J","true+1",52,2
"304",1,2,111,4,"I",3486,1,"M","true",53,2
"305",1,2,111,2,"K",1665,1,"M","true",54,2
"306",1,2,111,3,"G",2989,1,"J","true",55,2
"307",1,2,111,3,"K",2381,1,"M","true-1",56,2
"308",1,2,111,5,"G",4452,1,"L","true",57,2
"309",1,2,111,4,"I",2809,1,"L","true-1",58,2
"310",1,2,111,4,"I",4471,1,"N","true+1",59,2
"311",1,2,111,5,"I",6867,1,"O","true+1",60,2
"312",1,2,111,3,"A",2088,1,"D","true",61,2
"313",1,2,111,2,"A",995,1,"C","true",62,2
"314",1,2,111,5,"E",3585,1,"J","true",63,2
"315",1,2,111,2,"E",3089,1,"G","true",65,2
"316",1,2,111,4,"A",1737,1,"D","true-1",67,2
"317",1,2,111,2,"C",2114,1,"E","true",68,2
"318",1,2,111,3,"G",3340,1,"I","true-1",69,2
"319",1,2,111,2,"K",2853,1,"N","true+1",70,2
"320",1,2,111,5,"A",3882,1,"E","true-1",71,2
"321",1,2,111,4,"A",981,1,"E","true",72,2
"322",1,2,111,2,"G",2532,1,"I","true",73,2
"323",1,2,111,5,"G",4533,1,"L","true",74,2
"324",1,2,111,3,"E",2335,1,"H","true",75,2
"325",1,2,111,2,"G",2904,1,"H","true-1",76,2
"326",1,2,111,2,"C",1378,1,"D","true-1",77,2
"327",1,2,111,4,"C",3002,1,"G","true",79,2
"328",1,2,111,4,"G",3721,1,"J","true-1",80,2
"329",1,2,111,2,"I",3027,1,"K","true",81,2
"330",1,2,111,4,"A",2688,1,"F","true+1",82,2
"331",1,2,111,4,"G",3829,1,"K","true",84,2
"332",1,2,111,3,"C",2362,1,"F","true",85,2
"333",1,2,111,3,"I",2482,1,"L","true",86,2
"334",1,2,111,5,"E",3539,1,"K","true+1",88,2
"335",1,2,111,4,"C",2820,1,"F","true-1",89,2
"336",1,2,111,3,"I",2674,1,"L","true",90,2
"337",1,2,111,4,"E",3046,1,"I","true",91,2
"338",1,2,111,2,"G",4067,1,"I","true",92,2
"339",1,2,111,2,"C",2935,1,"E","true",93,2
"340",1,2,111,5,"C",5288,1,"I","true+1",94,2
"341",1,2,111,2,"I",2148,1,"K","true",95,2
"342",1,2,111,5,"E",3692,1,"I","true-1",96,2
"343",1,2,111,5,"I",6857,1,"N","true",1,3
"344",1,2,111,2,"I",1774,1,"L","true+1",2,3
"345",1,2,111,3,"A",2558,1,"D","true",3,3
"346",1,2,111,3,"I",1543,1,"K","true-1",4,3
"347",1,2,111,3,"G",2327,1,"K","true+1",5,3
"348",1,2,111,3,"G",1808,1,"J","true",6,3
"349",1,2,111,3,"A",1151,1,"D","true",7,3
"350",1,2,111,4,"A",1367,1,"E","true",8,3
"351",1,2,111,5,"A",1767,1,"G","true+1",9,3
"352",1,2,111,2,"E",1447,1,"G","true",10,3
"353",1,2,111,5,"I",3443,1,"M","true-1",11,3
"354",1,2,111,2,"A",1248,1,"B","true-1",12,3
"355",1,2,111,2,"K",1276,1,"M","true",13,3
"356",1,2,111,3,"C",2879,1,"G","true+1",14,3
"357",1,2,111,5,"E",6523,1,"J","true",15,3
"358",1,2,111,3,"E",1509,1,"G","true-1",16,3
"359",1,2,111,3,"G",3879,1,"J","true",17,3
"360",1,2,111,2,"A",1409,1,"D","true+1",20,3
"361",1,2,111,5,"I",3791,1,"N","true",21,3
"362",1,2,111,2,"A",1359,1,"C","true",22,3
"363",1,2,111,5,"G",2327,1,"K","true-1",23,3
"364",1,2,111,4,"C",3976,1,"F","true-1",24,3
"365",1,2,111,5,"E",3504,1,"J","true",25,3
"366",1,2,111,3,"E",1402,1,"H","true",26,3
"367",1,2,111,4,"K",2441,1,"O","true",27,3
"368",1,2,111,3,"C",3174,1,"F","true",28,3
"369",1,2,111,4,"C",2694,1,"G","true",29,3
"370",1,2,111,4,"K",3088,1,"N","true-1",30,3
"371",1,2,111,3,"I",3492,1,"M","true+1",31,3
"372",1,2,111,4,"C",2735,1,"H","true+1",32,3
"373",1,2,111,4,"G",5496,1,"K","true",33,3
"374",1,2,111,2,"G",2227,1,"H","true-1",34,3
"375",1,2,111,2,"K",2600,1,"N","true+1",35,3
"376",1,2,111,5,"C",4423,1,"H","true",36,3
"377",1,2,111,4,"E",4845,1,"I","true",37,3
"378",1,2,111,4,"C",3757,1,"G","true",39,3
"379",1,2,111,3,"A",1621,1,"C","true-1",40,3
"380",1,2,111,2,"I",1595,1,"K","true",41,3
"381",1,2,111,3,"G",1746,1,"I","true-1",42,3
"382",1,2,111,3,"C",3114,1,"E","true-1",43,3
"383",1,2,111,5,"E",6444,1,"K","true+1",44,3
"384",1,2,111,2,"K",1497,1,"M","true",45,3
"385",1,2,111,4,"A",2572,1,"F","true+1",46,3
"386",1,2,111,2,"C",2211,1,"F","true+1",47,3
"387",1,2,111,4,"I",3673,1,"L","true-1",52,3
"388",1,2,111,2,"G",2461,1,"I","true",53,3
"389",1,2,111,2,"I",2807,1,"J","true-1",55,3
"390",1,2,111,3,"K",1838,1,"N","true",56,3
"391",1,2,111,2,"C",1747,1,"E","true",57,3
"392",1,2,111,4,"G",2307,1,"K","true",58,3
"393",1,2,111,3,"A",2526,1,"E","true+1",59,3
"394",1,2,111,4,"G",2264,1,"J","true-1",60,3
"395",1,2,111,3,"E",1612,1,"H","true",61,3
"396",1,2,111,4,"A",2049,1,"E","true",62,3
"397",1,2,111,5,"G",2398,1,"L","true",63,3
"398",1,2,111,2,"G",2245,1,"J","true+1",64,3
"399",1,2,111,5,"C",2033,1,"G","true-1",65,3
"400",1,2,111,4,"E",3574,1,"J","true+1",66,3
"401",1,2,111,2,"E",1126,1,"G","true",67,3
"402",1,2,111,5,"A",2080,1,"E","true-1",68,3
"403",1,2,111,4,"K",2099,1,"O","true",69,3
"404",1,2,111,3,"E",1798,1,"I","true+1",70,3
"405",1,2,111,5,"I",2924,1,"O","true+1",71,3
"406",1,2,111,4,"G",2478,1,"L","true+1",72,3
"407",1,2,111,2,"C",1409,1,"D","true-1",73,3
"408",1,2,111,5,"A",3496,1,"F","true",74,3
"409",1,2,111,2,"E",1754,1,"F","true-1",75,3
"410",1,2,111,4,"A",2171,1,"D","true-1",76,3
"411",1,2,111,4,"K",2867,1,"P","true+1",77,3
"412",1,2,111,5,"A",1914,1,"F","true",79,3
"413",1,2,111,2,"E",2963,1,"H","true+1",80,3
"414",1,2,111,5,"G",2899,1,"M","true+1",81,3
"415",1,2,111,2,"G",2150,1,"I","true",82,3
"416",1,2,111,5,"G",4094,1,"L","true",83,3
"417",1,2,111,4,"E",3049,1,"H","true-1",84,3
"418",1,2,111,2,"K",1118,1,"L","true-1",85,3
"419",1,2,111,3,"I",2744,1,"L","true",86,3
"420",1,2,111,3,"K",2192,1,"N","true",87,3
"421",1,2,111,3,"K",1359,1,"M","true-1",88,3
"422",1,2,111,4,"I",2000,1,"N","true+1",89,3
"423",1,2,111,3,"K",1902,1,"O","true+1",90,3
"424",1,2,111,3,"C",4265,1,"F","true",91,3
"425",1,2,111,4,"E",2189,1,"I","true",92,3
"426",1,2,111,2,"C",1588,1,"E","true",93,3
"427",1,2,111,3,"I",1761,1,"L","true",95,3
"428",1,2,111,2,"I",1177,1,"K","true",96,3
"429",1,2,111,2,"A",2466,1,"C","true",1,4
"430",1,2,111,3,"E",2316,1,"I","true+1",3,4
"431",1,2,111,3,"I",1974,1,"M","true+1",4,4
"432",1,2,111,2,"A",1318,1,"D","true+1",5,4
"433",1,2,111,4,"G",2800,1,"K","true",6,4
"434",1,2,111,4,"A",1638,1,"D","true-1",7,4
"435",1,2,111,3,"G",2131,1,"I","true-1",8,4
"436",1,2,111,4,"A",5269,1,"E","true",10,4
"437",1,2,111,4,"K",2233,1,"O","true",11,4
"438",1,2,111,4,"A",6102,1,"E","true",12,4
"439",1,2,111,2,"E",1417,1,"G","true",13,4
"440",1,2,111,5,"C",4407,1,"I","true+1",14,4
"441",1,2,111,5,"G",3302,1,"L","true",15,4
"442",1,2,111,2,"G",2056,1,"I","true",16,4
"443",1,2,111,2,"K",2101,1,"M","true",17,4
"444",1,2,111,4,"C",3527,1,"G","true",18,4
"445",1,2,111,3,"K",1721,1,"O","true+1",19,4
"446",1,2,111,4,"E",3026,1,"J","true+1",20,4
"447",1,2,111,3,"C",1456,1,"E","true-1",21,4
"448",1,2,111,5,"G",3020,1,"K","true-1",22,4
"449",1,2,111,2,"K",1690,1,"M","true",23,4
"450",1,2,111,5,"E",4117,1,"J","true",24,4
"451",1,2,111,2,"E",1687,1,"G","true",25,4
"452",1,2,111,4,"K",2954,1,"O","true",26,4
"453",1,2,111,3,"I",2611,1,"L","true",27,4
"454",1,2,111,2,"G",1873,1,"H","true-1",29,4
"455",1,2,111,3,"G",2373,1,"J","true",30,4
"456",1,2,111,3,"G",2373,1,"J","true",31,4
"457",1,2,111,4,"I",2261,1,"L","true-1",33,4
"458",1,2,111,2,"I",1705,1,"K","true",34,4
"459",1,2,111,5,"G",3347,1,"M","true+1",35,4
"460",1,2,111,4,"E",1860,1,"I","true",36,4
"461",1,2,111,2,"A",936,1,"C","true",37,4
"462",1,2,111,3,"G",2081,1,"K","true+1",38,4
"463",1,2,111,3,"C",3100,1,"F","true",39,4
"464",1,2,111,5,"E",1694,1,"I","true-1",40,4
"465",1,2,111,5,"I",3433,1,"M","true-1",41,4
"466",1,2,111,2,"E",1646,1,"F","true-1",42,4
"467",1,2,111,3,"E",1283,1,"H","true",43,4
"468",1,2,111,2,"I",1489,1,"J","true-1",45,4
"469",1,2,111,5,"E",3606,1,"J","true",47,4
"470",1,2,111,5,"E",3780,1,"K","true+1",48,4
"471",1,2,111,2,"C",1244,1,"D","true-1",49,4
"472",1,2,111,4,"C",3888,1,"H","true+1",50,4
"473",1,2,111,2,"E",2068,1,"H","true+1",51,4
"474",1,2,111,3,"A",1279,1,"D","true",52,4
"475",1,2,111,4,"E",3690,1,"I","true",53,4
"476",1,2,111,2,"K",1382,1,"L","true-1",54,4
"477",1,2,111,3,"E",1685,1,"G","true-1",55,4
"478",1,2,111,4,"E",3664,1,"H","true-1",56,4
"479",1,2,111,4,"K",2276,1,"P","true+1",57,4
"480",1,2,111,2,"C",2087,1,"E","true",58,4
"481",1,2,111,4,"G",3122,1,"K","true",60,4
"482",1,2,111,5,"A",1412,1,"F","true",61,4
"483",1,2,111,5,"A",1129,1,"E","true-1",62,4
"484",1,2,111,5,"I",3635,1,"O","true+1",63,4
"485",1,2,111,3,"E",1480,1,"H","true",64,4
"486",1,2,111,5,"G",2219,1,"L","true",65,4
"487",1,2,111,2,"I",1777,1,"L","true+1",66,4
"488",1,2,111,4,"G",1944,1,"J","true-1",67,4
"489",1,2,111,5,"I",3896,1,"N","true",68,4
"490",1,2,111,5,"I",4987,1,"N","true",69,4
"491",1,2,111,4,"C",3555,1,"G","true",70,4
"492",1,2,111,4,"C",2371,1,"F","true-1",71,4
"493",1,2,111,2,"I",3883,1,"K","true",72,4
"494",1,2,111,4,"I",2079,1,"M","true",73,4
"495",1,2,111,2,"C",1298,1,"E","true",74,4
"496",1,2,111,3,"I",2452,1,"K","true-1",75,4
"497",1,2,111,3,"I",2185,1,"L","true",76,4
"498",1,2,111,3,"A",1640,1,"C","true-1",77,4
"499",1,2,111,3,"A",1533,1,"E","true+1",78,4
"500",1,2,111,4,"I",2350,1,"N","true+1",79,4
"501",1,2,111,2,"K",2391,1,"N","true+1",80,4
"502",1,2,111,3,"K",2502,1,"N","true",81,4
"503",1,2,111,2,"G",1976,1,"J","true+1",82,4
"504",1,2,111,5,"C",4936,1,"H","true",83,4
"505",1,2,111,5,"A",1561,1,"F","true",84,4
"506",1,2,111,3,"C",2465,1,"G","true+1",85,4
"507",1,2,111,5,"C",4933,1,"G","true-1",86,4
"508",1,2,111,4,"I",3614,1,"M","true",87,4
"509",1,2,111,2,"A",1172,1,"B","true-1",88,4
"510",1,2,111,3,"A",1316,1,"D","true",89,4
"511",1,2,111,3,"K",2190,1,"N","true",90,4
"512",1,2,111,3,"C",1437,1,"F","true",91,4
"513",1,2,111,4,"A",1354,1,"F","true+1",92,4
"514",1,2,111,4,"K",4938,1,"N","true-1",93,4
"515",1,2,111,2,"C",1852,1,"F","true+1",94,4
"516",1,2,111,4,"G",3016,1,"L","true+1",95,4
"517",1,3,111,3,"I",1830,1,"K","true-1",1,2
"518",1,3,111,3,"A",1215,1,"D","true",2,2
"519",1,3,111,5,"G",3059,1,"L","true",3,2
"520",1,3,111,3,"E",1181,1,"G","true-1",4,2
"521",1,3,111,2,"I",955,1,"K","true",5,2
"522",1,3,111,5,"E",2435,1,"J","true",6,2
"523",1,3,111,4,"A",1935,1,"E","true",7,2
"524",1,3,111,4,"G",3940,1,"J","true-1",8,2
"525",1,3,111,2,"A",837,1,"C","true",9,2
"526",1,3,111,2,"G",1730,1,"H","true-1",10,2
"527",1,3,111,3,"G",2071,1,"J","true",11,2
"528",1,3,111,3,"A",1341,1,"D","true",12,2
"529",1,3,111,5,"G",1675,1,"M","true+1",13,2
"530",1,3,111,5,"I",3347,1,"M","true-1",14,2
"531",1,3,111,3,"C",2470,1,"G","true+1",16,2
"532",1,3,111,2,"C",2113,1,"E","true",17,2
"533",1,3,111,4,"G",2421,1,"L","true+1",18,2
"534",1,3,111,4,"A",1611,1,"E","true",19,2
"535",1,3,111,4,"I",1614,1,"L","true-1",20,2
"536",1,3,111,4,"K",2144,1,"O","true",21,2
"537",1,3,111,2,"K",2419,1,"M","true",22,2
"538",1,3,111,3,"K",1393,1,"M","true-1",23,2
"539",1,3,111,5,"A",1693,1,"F","true",24,2
"540",1,3,111,4,"C",3003,1,"F","true-1",25,2
"541",1,3,111,3,"C",1799,1,"F","true",26,2
"542",1,3,111,2,"E",1289,1,"F","true-1",27,2
"543",1,3,111,3,"K",5332,1,"N","true",29,2
"544",1,3,111,2,"C",1158,1,"E","true",30,2
"545",1,3,111,4,"K",1282,1,"O","true",33,2
"546",1,3,111,5,"A",2060,1,"G","true+1",34,2
"547",1,3,111,5,"G",2994,1,"L","true",35,2
"548",1,3,111,4,"E",2374,1,"H","true-1",36,2
"549",1,3,111,5,"C",3979,1,"G","true-1",38,2
"550",1,3,111,5,"I",3186,1,"N","true",39,2
"551",1,3,111,3,"C",1998,1,"E","true-1",40,2
"552",1,3,111,3,"G",2692,1,"J","true",42,2
"553",1,3,111,2,"I",1166,1,"J","true-1",43,2
"554",1,3,111,3,"G",5064,1,"K","true+1",46,2
"555",1,3,111,2,"G",1998,1,"I","true",47,2
"556",1,3,111,3,"E",2485,1,"H","true",49,2
"557",1,3,111,4,"A",2673,1,"D","true-1",51,2
"558",1,3,111,2,"E",1503,1,"G","true",53,2
"559",1,3,111,4,"C",3198,1,"H","true+1",54,2
"560",1,3,111,5,"E",4701,1,"K","true+1",56,2
"561",1,3,111,2,"E",2588,1,"H","true+1",57,2
"562",1,3,111,3,"I",3594,1,"M","true+1",58,2
"563",1,3,111,2,"C",2561,1,"F","true+1",60,2
"564",1,3,111,2,"G",2896,1,"I","true",61,2
"565",1,3,111,2,"A",1144,1,"B","true-1",62,2
"566",1,3,111,5,"I",4040,1,"O","true+1",63,2
"567",1,3,111,2,"K",1309,1,"L","true-1",65,2
"568",1,3,111,4,"I",3573,1,"M","true",66,2
"569",1,3,111,4,"I",1783,1,"N","true+1",67,2
"570",1,3,111,3,"G",5946,1,"I","true-1",68,2
"571",1,3,111,4,"G",4728,1,"K","true",69,2
"572",1,3,111,4,"K",2621,1,"P","true+1",70,2
"573",1,3,111,2,"A",2586,1,"C","true",71,2
"574",1,3,111,2,"E",1833,1,"G","true",72,2
"575",1,3,111,4,"C",3425,1,"G","true",73,2
"576",1,3,111,3,"A",2722,1,"C","true-1",74,2
"577",1,3,111,3,"E",2906,1,"H","true",75,2
"578",1,3,111,3,"I",2675,1,"L","true",76,2
"579",1,3,111,4,"A",3357,1,"F","true+1",77,2
"580",1,3,111,3,"K",2905,1,"O","true+1",78,2
"581",1,3,111,5,"C",4225,1,"I","true+1",79,2
"582",1,3,111,3,"E",2773,1,"I","true+1",80,2
"583",1,3,111,4,"G",4954,1,"K","true",81,2
"584",1,3,111,5,"A",1957,1,"F","true",82,2
"585",1,3,111,3,"C",2336,1,"F","true",83,2
"586",1,3,111,5,"C",2802,1,"H","true",84,2
"587",1,3,111,5,"E",3182,1,"J","true",85,2
"588",1,3,111,2,"C",2161,1,"D","true-1",86,2
"589",1,3,111,2,"I",2779,1,"L","true+1",87,2
"590",1,3,111,2,"I",1624,1,"K","true",88,2
"591",1,3,111,5,"I",3434,1,"N","true",89,2
"592",1,3,111,2,"K",2546,1,"N","true+1",90,2
"593",1,3,111,3,"A",1818,1,"E","true+1",91,2
"594",1,3,111,3,"I",2715,1,"L","true",92,2
"595",1,3,111,4,"K",4228,1,"N","true-1",93,2
"596",1,3,111,2,"A",1176,1,"D","true+1",94,2
"597",1,3,111,4,"E",3070,1,"J","true+1",95,2
"598",1,3,111,5,"A",2503,1,"E","true-1",96,2
"599",1,3,111,2,"C",1351,1,"D","true-1",2,3
"600",1,3,111,5,"C",2541,1,"H","true",3,3
"601",1,3,111,4,"K",2901,1,"P","true+1",4,3
"602",1,3,111,5,"G",3221,1,"L","true",5,3
"603",1,3,111,2,"A",1470,1,"D","true+1",6,3
"604",1,3,111,4,"A",1247,1,"E","true",7,3
"605",1,3,111,5,"E",2522,1,"J","true",8,3
"606",1,3,111,2,"E",3716,1,"G","true",9,3
"607",1,3,111,3,"K",1311,1,"N","true",10,3
"608",1,3,111,3,"A",1319,1,"D","true",11,3
"609",1,3,111,5,"E",3318,1,"I","true-1",12,3
"610",1,3,111,3,"I",2620,1,"L","true",13,3
"611",1,3,111,4,"K",4161,1,"N","true-1",14,3
"612",1,3,111,5,"G",4744,1,"M","true+1",15,3
"613",1,3,111,4,"C",2484,1,"G","true",16,3
"614",1,3,111,2,"E",1711,1,"H","true+1",17,3
"615",1,3,111,4,"K",2837,1,"O","true",18,3
"616",1,3,111,4,"I",3857,1,"M","true",19,3
"617",1,3,111,3,"E",1703,1,"I","true+1",21,3
"618",1,3,111,3,"E",3685,1,"G","true-1",22,3
"619",1,3,111,3,"K",1889,1,"N","true",23,3
"620",1,3,111,4,"C",4800,1,"F","true-1",25,3
"621",1,3,111,5,"A",1243,1,"F","true",26,3
"622",1,3,111,5,"A",1262,1,"F","true",27,3
"623",1,3,111,3,"G",5448,1,"I","true-1",28,3
"624",1,3,111,3,"C",1941,1,"F","true",29,3
"625",1,3,111,2,"C",1297,1,"F","true+1",30,3
"626",1,3,111,4,"E",3314,1,"I","true",31,3
"627",1,3,111,2,"C",1335,1,"E","true",32,3
"628",1,3,111,3,"E",1213,1,"H","true",33,3
"629",1,3,111,2,"E",1554,1,"F","true-1",34,3
"630",1,3,111,5,"G",7468,1,"L","true",36,3
"631",1,3,111,3,"G",1718,1,"J","true",37,3
"632",1,3,111,3,"A",1164,1,"D","true",38,3
"633",1,3,111,2,"I",1493,1,"J","true-1",40,3
"634",1,3,111,5,"E",2949,1,"J","true",41,3
"635",1,3,111,4,"I",2754,1,"L","true-1",42,3
"636",1,3,111,2,"K",1611,1,"N","true+1",45,3
"637",1,3,111,5,"C",6773,1,"I","true+1",46,3
"638",1,3,111,2,"G",1902,1,"I","true",47,3
"639",1,3,111,3,"C",1972,1,"E","true-1",48,3
"640",1,3,111,4,"I",2525,1,"M","true",49,3
"641",1,3,111,4,"G",3470,1,"K","true",50,3
"642",1,3,111,2,"I",2629,1,"L","true+1",51,3
"643",1,3,111,4,"A",4401,1,"F","true+1",52,3
"644",1,3,111,4,"G",2749,1,"J","true-1",53,3
"645",1,3,111,4,"A",3468,1,"D","true-1",54,3
"646",1,3,111,2,"I",2395,1,"K","true",55,3
"647",1,3,111,2,"A",2581,1,"C","true",57,3
"648",1,3,111,2,"G",2132,1,"H","true-1",58,3
"649",1,3,111,5,"C",3301,1,"H","true",60,3
"650",1,3,111,3,"I",1834,1,"K","true-1",61,3
"651",1,3,111,2,"K",2082,1,"M","true",62,3
"652",1,3,111,5,"I",2583,1,"N","true",63,3
"653",1,3,111,5,"E",7430,1,"K","true+1",64,3
"654",1,3,111,3,"G",5715,1,"J","true",66,3
"655",1,3,111,5,"A",1588,1,"G","true+1",67,3
"656",1,3,111,2,"A",2128,1,"B","true-1",70,3
"657",1,3,111,4,"E",3195,1,"I","true",71,3
"658",1,3,111,4,"G",4470,1,"L","true+1",72,3
"659",1,3,111,4,"C",4215,1,"G","true",73,3
"660",1,3,111,4,"K",3180,1,"O","true",74,3
"661",1,3,111,3,"C",3039,1,"F","true",75,3
"662",1,3,111,5,"A",5361,1,"E","true-1",76,3
"663",1,3,111,3,"K",2153,1,"O","true+1",77,3
"664",1,3,111,2,"G",3730,1,"I","true",78,3
"665",1,3,111,3,"C",2477,1,"G","true+1",79,3
"666",1,3,111,2,"K",2256,1,"L","true-1",80,3
"667",1,3,111,4,"A",2221,1,"E","true",81,3
"668",1,3,111,2,"K",2398,1,"M","true",83,3
"669",1,3,111,2,"E",1340,1,"G","true",84,3
"670",1,3,111,3,"A",2523,1,"E","true+1",85,3
"671",1,3,111,4,"C",2845,1,"H","true+1",86,3
"672",1,3,111,4,"G",2983,1,"K","true",87,3
"673",1,3,111,4,"E",2195,1,"H","true-1",88,3
"674",1,3,111,3,"K",1291,1,"M","true-1",89,3
"675",1,3,111,2,"C",2340,1,"E","true",90,3
"676",1,3,111,3,"I",1213,1,"L","true",91,3
"677",1,3,111,2,"I",1074,1,"K","true",92,3
"678",1,3,111,5,"C",2301,1,"G","true-1",93,3
"679",1,3,111,5,"I",5984,1,"N","true",94,3
"680",1,3,111,5,"I",2069,1,"M","true-1",95,3
"681",1,3,111,3,"I",2771,1,"M","true+1",96,3
"682",1,3,111,5,"E",7006,1,"K","true+1",1,4
"683",1,3,111,4,"A",1156,1,"E","true",2,4
"684",1,3,111,4,"G",2659,1,"K","true",3,4
"685",1,3,111,5,"I",2061,1,"M","true-1",6,4
"686",1,3,111,2,"A",1251,1,"D","true+1",7,4
"687",1,3,111,2,"K",2253,1,"N","true+1",8,4
"688",1,3,111,4,"I",2331,1,"N","true+1",9,4
"689",1,3,111,5,"E",2405,1,"I","true-1",10,4
"690",1,3,111,4,"K",2284,1,"P","true+1",11,4
"691",1,3,111,2,"G",1056,1,"I","true",12,4
"692",1,3,111,3,"A",969,1,"D","true",14,4
"693",1,3,111,3,"C",2017,1,"F","true",15,4
"694",1,3,111,2,"E",1440,1,"G","true",16,4
"695",1,3,111,4,"G",3154,1,"J","true-1",17,4
"696",1,3,111,2,"I",2719,1,"L","true+1",18,4
"697",1,3,111,4,"K",2223,1,"O","true",19,4
"698",1,3,111,4,"C",2422,1,"G","true",20,4
"699",1,3,111,5,"G",3868,1,"M","true+1",21,4
"700",1,3,111,3,"I",3952,1,"M","true+1",22,4
"701",1,3,111,2,"G",2216,1,"I","true",23,4
"702",1,3,111,2,"E",1120,1,"G","true",24,4
"703",1,3,111,3,"G",2344,1,"K","true+1",25,4
"704",1,3,111,3,"G",4655,1,"J","true",27,4
"705",1,3,111,5,"C",2823,1,"I","true+1",28,4
"706",1,3,111,3,"K",1211,1,"N","true",29,4
"707",1,3,111,4,"E",3520,1,"H","true-1",30,4
"708",1,3,111,2,"A",876,1,"C","true",31,4
"709",1,3,111,4,"E",1984,1,"I","true",32,4
"710",1,3,111,5,"A",1058,1,"F","true",33,4
"711",1,3,111,3,"G",1589,1,"I","true-1",34,4
"712",1,3,111,2,"A",1289,1,"B","true-1",35,4
"713",1,3,111,5,"I",4201,1,"N","true",36,4
"714",1,3,111,2,"K",2917,1,"L","true-1",37,4
"715",1,3,111,2,"C",2301,1,"E","true",38,4
"716",1,3,111,3,"C",1744,1,"F","true",39,4
"717",1,3,111,5,"E",3989,1,"J","true",40,4
"718",1,3,111,2,"C",2155,1,"F","true+1",42,4
"719",1,3,111,4,"I",2381,1,"L","true-1",43,4
"720",1,3,111,2,"I",1813,1,"K","true",44,4
"721",1,3,111,4,"A",2822,1,"E","true",45,4
"722",1,3,111,5,"I",3786,1,"O","true+1",46,4
"723",1,3,111,5,"C",2858,1,"G","true-1",47,4
"724",1,3,111,5,"C",2844,1,"H","true",48,4
"725",1,3,111,2,"I",1487,1,"J","true-1",49,4
"726",1,3,111,3,"E",1918,1,"H","true",50,4
"727",1,3,111,2,"A",1787,1,"C","true",51,4
"728",1,3,111,4,"A",1917,1,"D","true-1",52,4
"729",1,3,111,5,"E",2634,1,"J","true",53,4
"730",1,3,111,3,"K",2295,1,"O","true+1",54,4
"731",1,3,111,3,"I",1074,1,"L","true",55,4
"732",1,3,111,5,"G",3748,1,"L","true",56,4
"733",1,3,111,3,"A",997,1,"D","true",57,4
"734",1,3,111,5,"A",2340,1,"G","true+1",58,4
"735",1,3,111,3,"E",1677,1,"H","true",59,4
"736",1,3,111,2,"C",1684,1,"E","true",60,4
"737",1,3,111,4,"C",1860,1,"F","true-1",61,4
"738",1,3,111,2,"C",1555,1,"D","true-1",62,4
"739",1,3,111,2,"E",2064,1,"F","true-1",63,4
"740",1,3,111,3,"I",1214,1,"K","true-1",64,4
"741",1,3,111,4,"E",1635,1,"J","true+1",65,4
"742",1,3,111,5,"C",2477,1,"H","true",66,4
"743",1,3,111,3,"C",1155,1,"E","true-1",68,4
"744",1,3,111,2,"E",1130,1,"H","true+1",69,4
"745",1,3,111,2,"K",1756,1,"M","true",71,4
"746",1,3,111,2,"K",807,1,"M","true",72,4
"747",1,3,111,3,"I",1470,1,"L","true",73,4
"748",1,3,111,5,"I",4399,1,"N","true",74,4
"749",1,3,111,4,"G",3268,1,"L","true+1",75,4
"750",1,3,111,3,"E",2307,1,"I","true+1",76,4
"751",1,3,111,5,"A",1454,1,"F","true",77,4
"752",1,3,111,5,"G",3279,1,"K","true-1",78,4
"753",1,3,111,4,"G",2677,1,"K","true",79,4
"754",1,3,111,4,"E",2054,1,"I","true",82,4
"755",1,3,111,3,"G",3797,1,"J","true",83,4
"756",1,3,111,3,"C",2082,1,"G","true+1",85,4
"757",1,3,111,4,"C",2464,1,"G","true",86,4
"758",1,3,111,3,"E",1940,1,"G","true-1",87,4
"759",1,3,111,2,"G",2023,1,"H","true-1",88,4
"760",1,3,111,2,"G",2350,1,"J","true+1",89,4
"761",1,3,111,4,"I",2256,1,"M","true",90,4
"762",1,3,111,4,"K",1869,1,"N","true-1",91,4
"763",1,3,111,4,"I",2308,1,"M","true",92,4
"764",1,3,111,3,"K",2263,1,"N","true",93,4
"765",1,3,111,3,"A",1620,1,"E","true+1",94,4
"766",1,3,111,4,"C",1646,1,"H","true+1",95,4
"767",1,3,111,2,"I",1007,1,"K","true",96,4
"768",1,4,111,4,"A",2234,1,"E","true",1,2
"769",1,4,111,4,"E",1904,1,"J","true+1",2,2
"770",1,4,111,2,"G",1650,1,"J","true+1",3,2
"771",1,4,111,3,"K",1934,1,"N","true",4,2
"772",1,4,111,3,"I",1440,1,"M","true+1",5,2
"773",1,4,111,5,"G",2773,1,"L","true",6,2
"774",1,4,111,4,"I",1781,1,"M","true",7,2
"775",1,4,111,3,"G",2268,1,"J","true",8,2
"776",1,4,111,5,"I",4576,1,"O","true+1",9,2
"777",1,4,111,3,"C",1752,1,"E","true-1",10,2
"778",1,4,111,3,"K",1872,1,"N","true",11,2
"779",1,4,111,4,"C",1844,1,"G","true",12,2
"780",1,4,111,4,"C",1609,1,"H","true+1",13,2
"781",1,4,111,3,"A",1239,1,"C","true-1",14,2
"782",1,4,111,4,"A",970,1,"E","true",16,2
"783",1,4,111,4,"K",1506,1,"O","true",17,2
"784",1,4,111,4,"A",933,1,"F","true+1",18,2
"785",1,4,111,4,"G",1598,1,"K","true",19,2
"786",1,4,111,2,"I",1420,1,"K","true",20,2
"787",1,4,111,3,"A",1074,1,"E","true+1",21,2
"788",1,4,111,2,"G",1109,1,"I","true",22,2
"789",1,4,111,2,"A",872,1,"B","true-1",23,2
"790",1,4,111,5,"E",2740,1,"K","true+1",24,2
"791",1,4,111,2,"I",1045,1,"J","true-1",25,2
"792",1,4,111,4,"K",1977,1,"P","true+1",26,2
"793",1,4,111,2,"E",2075,1,"F","true-1",28,2
"794",1,4,111,4,"G",3015,1,"K","true",29,2
"795",1,4,111,3,"I",1117,1,"K","true-1",30,2
"796",1,4,111,5,"E",2112,1,"I","true-1",31,2
"797",1,4,111,2,"C",1994,1,"F","true+1",32,2
"798",1,4,111,2,"A",1241,1,"D","true+1",33,2
"799",1,4,111,5,"C",2454,1,"G","true-1",34,2
"800",1,4,111,3,"C",2482,1,"G","true+1",35,2
"801",1,4,111,4,"E",1982,1,"H","true-1",36,2
"802",1,4,111,5,"G",2589,1,"K","true-1",37,2
"803",1,4,111,2,"K",804,1,"M","true",38,2
"804",1,4,111,3,"G",1698,1,"K","true+1",39,2
"805",1,4,111,5,"I",2397,1,"N","true",40,2
"806",1,4,111,4,"I",3019,1,"L","true-1",41,2
"807",1,4,111,3,"C",1633,1,"F","true",42,2
"808",1,4,111,3,"E",1134,1,"H","true",43,2
"809",1,4,111,3,"E",1167,1,"I","true+1",44,2
"810",1,4,111,2,"G",991,1,"I","true",45,2
"811",1,4,111,2,"E",918,1,"G","true",46,2
"812",1,4,111,5,"A",1376,1,"F","true",47,2
"813",1,4,111,3,"E",1000,1,"H","true",48,2
"814",1,4,111,2,"I",1246,1,"K","true",49,2
"815",1,4,111,4,"I",2282,1,"N","true+1",51,2
"816",1,4,111,4,"A",1278,1,"D","true-1",52,2
"817",1,4,111,2,"A",953,1,"C","true",53,2
"818",1,4,111,2,"C",1617,1,"E","true",54,2
"819",1,4,111,4,"E",1247,1,"I","true",55,2
"820",1,4,111,5,"E",1867,1,"J","true",56,2
"821",1,4,111,2,"G",1839,1,"H","true-1",57,2
"822",1,4,111,3,"K",2116,1,"O","true+1",58,2
"823",1,4,111,2,"E",1166,1,"G","true",59,2
"824",1,4,111,3,"I",1134,1,"L","true",60,2
"825",1,4,111,3,"G",1855,1,"J","true",61,2
"826",1,4,111,5,"I",2537,1,"N","true",63,2
"827",1,4,111,5,"E",3474,1,"J","true",64,2
"828",1,4,111,3,"K",1318,1,"M","true-1",65,2
"829",1,4,111,5,"C",2096,1,"H","true",66,2
"830",1,4,111,2,"E",1194,1,"H","true+1",67,2
"831",1,4,111,5,"A",2420,1,"G","true+1",69,2
"832",1,4,111,5,"C",2210,1,"I","true+1",70,2
"833",1,4,111,2,"K",1224,1,"M","true",71,2
"834",1,4,111,5,"I",1446,1,"M","true-1",72,2
"835",1,4,111,2,"I",1163,1,"L","true+1",73,2
"836",1,4,111,4,"E",1578,1,"I","true",74,2
"837",1,4,111,4,"C",1797,1,"G","true",76,2
"838",1,4,111,5,"G",2561,1,"L","true",78,2
"839",1,4,111,3,"I",2073,1,"L","true",79,2
"840",1,4,111,2,"K",1141,1,"N","true+1",80,2
"841",1,4,111,3,"A",1190,1,"D","true",81,2
"842",1,4,111,4,"C",2789,1,"F","true-1",82,2
"843",1,4,111,3,"E",1252,1,"G","true-1",85,2
"844",1,4,111,2,"K",1136,1,"L","true-1",86,2
"845",1,4,111,5,"G",2465,1,"M","true+1",87,2
"846",1,4,111,5,"A",1336,1,"F","true",89,2
"847",1,4,111,3,"G",2641,1,"I","true-1",90,2
"848",1,4,111,3,"A",934,1,"D","true",91,2
"849",1,4,111,2,"A",911,1,"C","true",92,2
"850",1,4,111,2,"C",1017,1,"E","true",93,2
"851",1,4,111,4,"K",2702,1,"N","true-1",94,2
"852",1,4,111,3,"C",1777,1,"F","true",95,2
"853",1,4,111,2,"C",1225,1,"D","true-1",96,2
"854",1,4,111,4,"A",3134,1,"D","true-1",1,3
"855",1,4,111,4,"K",1551,1,"P","true+1",2,3
"856",1,4,111,5,"A",3040,1,"G","true+1",3,3
"857",1,4,111,3,"K",2821,1,"O","true+1",4,3
"858",1,4,111,4,"I",1425,1,"L","true-1",7,3
"859",1,4,111,3,"A",2663,1,"C","true-1",8,3
"860",1,4,111,2,"G",1963,1,"I","true",9,3
"861",1,4,111,5,"A",2331,1,"F","true",10,3
"862",1,4,111,5,"I",3564,1,"M","true-1",11,3
"863",1,4,111,2,"G",1500,1,"J","true+1",12,3
"864",1,4,111,2,"K",1086,1,"L","true-1",13,3
"865",1,4,111,3,"E",2849,1,"I","true+1",14,3
"866",1,4,111,4,"G",2718,1,"K","true",15,3
"867",1,4,111,3,"I",1680,1,"K","true-1",16,3
"868",1,4,111,4,"A",1155,1,"E","true",19,3
"869",1,4,111,3,"C",1268,1,"F","true",20,3
"870",1,4,111,4,"C",4623,1,"G","true",22,3
"871",1,4,111,5,"I",3637,1,"O","true+1",23,3
"872",1,4,111,3,"A",1266,1,"D","true",24,3
"873",1,4,111,5,"G",2686,1,"K","true-1",25,3
"874",1,4,111,2,"A",1393,1,"C","true",26,3
"875",1,4,111,5,"C",2519,1,"G","true-1",28,3
"876",1,4,111,2,"E",1313,1,"G","true",29,3
"877",1,4,111,3,"C",2201,1,"G","true+1",31,3
"878",1,4,111,2,"K",911,1,"M","true",32,3
"879",1,4,111,5,"E",3993,1,"J","true",33,3
"880",1,4,111,2,"C",1224,1,"D","true-1",34,3
"881",1,4,111,2,"I",2150,1,"L","true+1",35,3
"882",1,4,111,3,"E",1054,1,"H","true",36,3
"883",1,4,111,5,"I",2579,1,"N","true",37,3
"884",1,4,111,2,"G",1674,1,"H","true-1",38,3
"885",1,4,111,4,"I",1606,1,"M","true",39,3
"886",1,4,111,3,"K",1380,1,"N","true",40,3
"887",1,4,111,2,"I",1147,1,"K","true",41,3
"888",1,4,111,3,"I",1804,1,"M","true+1",42,3
"889",1,4,111,2,"E",1026,1,"G","true",43,3
"890",1,4,111,2,"A",952,1,"B","true-1",44,3
"891",1,4,111,5,"G",1932,1,"L","true",46,3
"892",1,4,111,4,"A",1869,1,"E","true",47,3
"893",1,4,111,5,"C",2593,1,"H","true",48,3
"894",1,4,111,2,"A",984,1,"C","true",49,3
"895",1,4,111,5,"C",3567,1,"H","true",50,3
"896",1,4,111,3,"C",1919,1,"E","true-1",51,3
"897",1,4,111,5,"A",1167,1,"F","true",53,3
"898",1,4,111,4,"C",1599,1,"G","true",54,3
"899",1,4,111,5,"E",2909,1,"K","true+1",55,3
"900",1,4,111,4,"I",1672,1,"M","true",56,3
"901",1,4,111,3,"A",1939,1,"E","true+1",57,3
"902",1,4,111,4,"C",2085,1,"H","true+1",58,3
"903",1,4,111,4,"K",2432,1,"O","true",59,3
"904",1,4,111,2,"C",1869,1,"E","true",60,3
"905",1,4,111,2,"I",1905,1,"K","true",61,3
"906",1,4,111,2,"C",1427,1,"F","true+1",62,3
"907",1,4,111,3,"G",2024,1,"J","true",63,3
"908",1,4,111,5,"E",2245,1,"J","true",65,3
"909",1,4,111,2,"A",985,1,"D","true+1",66,3
"910",1,4,111,3,"E",1360,1,"G","true-1",67,3
"911",1,4,111,4,"G",1800,1,"L","true+1",68,3
"912",1,4,111,4,"G",1086,1,"K","true",69,3
"913",1,4,111,3,"K",945,1,"M","true-1",70,3
"914",1,4,111,4,"E",1354,1,"I","true",71,3
"915",1,4,111,2,"E",1202,1,"H","true+1",72,3
"916",1,4,111,3,"A",913,1,"D","true",73,3
"917",1,4,111,3,"K",1594,1,"N","true",74,3
"918",1,4,111,4,"K",2377,1,"N","true-1",75,3
"919",1,4,111,2,"E",1032,1,"F","true-1",76,3
"920",1,4,111,3,"I",1549,1,"L","true",77,3
"921",1,4,111,4,"G",3111,1,"J","true-1",81,3
"922",1,4,111,5,"E",1769,1,"I","true-1",82,3
"923",1,4,111,4,"E",2801,1,"J","true+1",83,3
"924",1,4,111,3,"G",2015,1,"K","true+1",84,3
"925",1,4,111,3,"C",1325,1,"F","true",85,3
"926",1,4,111,3,"I",903,1,"L","true",86,3
"927",1,4,111,4,"E",1665,1,"H","true-1",87,3
"928",1,4,111,5,"G",1917,1,"L","true",88,3
"929",1,4,111,5,"G",1359,1,"M","true+1",89,3
"930",1,4,111,2,"K",1127,1,"N","true+1",90,3
"931",1,4,111,3,"E",1608,1,"H","true",91,3
"932",1,4,111,2,"I",1399,1,"J","true-1",92,3
"933",1,4,111,2,"K",1687,1,"M","true",94,3
"934",1,4,111,3,"G",1715,1,"J","true",95,3
"935",1,4,111,4,"I",2588,1,"N","true+1",96,3
"936",1,4,111,3,"A",952,1,"D","true",1,4
"937",1,4,111,2,"I",1120,1,"L","true+1",2,4
"938",1,4,111,2,"C",1218,1,"D","true-1",3,4
"939",1,4,111,4,"A",1192,1,"D","true-1",5,4
"940",1,4,111,5,"I",1579,1,"N","true",7,4
"941",1,4,111,4,"I",2122,1,"L","true-1",8,4
"942",1,4,111,4,"G",1588,1,"K","true",9,4
"943",1,4,111,5,"G",2515,1,"M","true+1",10,4
"944",1,4,111,4,"I",2509,1,"M","true",11,4
"945",1,4,111,5,"A",951,1,"F","true",12,4
"946",1,4,111,4,"E",1168,1,"I","true",13,4
"947",1,4,111,3,"K",1104,1,"M","true-1",14,4
"948",1,4,111,2,"E",1074,1,"G","true",15,4
"949",1,4,111,3,"I",1382,1,"L","true",16,4
"950",1,4,111,3,"A",893,1,"E","true+1",17,4
"951",1,4,111,5,"I",2984,1,"M","true-1",18,4
"952",1,4,111,3,"K",991,1,"N","true",19,4
"953",1,4,111,5,"G",2054,1,"K","true-1",20,4
"954",1,4,111,2,"K",963,1,"M","true",21,4
"955",1,4,111,5,"G",1818,1,"L","true",22,4
"956",1,4,111,4,"E",2048,1,"J","true+1",23,4
"957",1,4,111,2,"I",941,1,"K","true",24,4
"958",1,4,111,4,"C",2214,1,"G","true",25,4
"959",1,4,111,2,"A",763,1,"C","true",26,4
"960",1,4,111,2,"C",747,1,"E","true",27,4
"961",1,4,111,5,"G",1102,1,"L","true",29,4
"962",1,4,111,3,"I",1504,1,"M","true+1",30,4
"963",1,4,111,2,"C",1731,1,"F","true+1",31,4
"964",1,4,111,2,"G",1436,1,"J","true+1",32,4
"965",1,4,111,4,"A",961,1,"E","true",33,4
"966",1,4,111,5,"C",1640,1,"H","true",34,4
"967",1,4,111,3,"A",838,1,"D","true",35,4
"968",1,4,111,4,"E",1731,1,"H","true-1",36,4
"969",1,4,111,5,"I",1868,1,"N","true",37,4
"970",1,4,111,3,"I",1584,1,"K","true-1",38,4
"971",1,4,111,2,"E",1087,1,"G","true",39,4
"972",1,4,111,2,"K",1170,1,"N","true+1",40,4
"973",1,4,111,3,"G",1878,1,"K","true+1",43,4
"974",1,4,111,3,"C",1881,1,"F","true",44,4
"975",1,4,111,5,"C",1645,1,"H","true",45,4
"976",1,4,111,4,"C",2169,1,"G","true",46,4
"977",1,4,111,5,"E",2225,1,"J","true",47,4
"978",1,4,111,4,"C",1917,1,"F","true-1",49,4
"979",1,4,111,5,"C",2270,1,"G","true-1",50,4
"980",1,4,111,4,"K",2274,1,"N","true-1",51,4
"981",1,4,111,4,"E",1815,1,"I","true",52,4
"982",1,4,111,2,"A",1100,1,"D","true+1",53,4
"983",1,4,111,4,"G",1950,1,"L","true+1",54,4
"984",1,4,111,4,"K",2511,1,"O","true",55,4
"985",1,4,111,3,"E",1161,1,"H","true",56,4
"986",1,4,111,3,"C",1673,1,"G","true+1",57,4
"987",1,4,111,3,"E",1765,1,"G","true-1",58,4
"988",1,4,111,4,"C",2217,1,"H","true+1",60,4
"989",1,4,111,3,"C",2235,1,"E","true-1",62,4
"990",1,4,111,3,"G",1665,1,"I","true-1",63,4
"991",1,4,111,5,"I",2540,1,"O","true+1",64,4
"992",1,4,111,5,"E",2678,1,"I","true-1",65,4
"993",1,4,111,2,"E",1097,1,"H","true+1",66,4
"994",1,4,111,3,"K",2251,1,"O","true+1",67,4
"995",1,4,111,5,"A",1488,1,"F","true",68,4
"996",1,4,111,2,"I",2243,1,"K","true",69,4
"997",1,4,111,3,"C",1038,1,"F","true",73,4
"998",1,4,111,2,"G",1619,1,"H","true-1",74,4
"999",1,4,111,3,"G",2033,1,"J","true",75,4
"1000",1,4,111,2,"C",846,1,"E","true",76,4
"1001",1,4,111,2,"K",938,1,"M","true",77,4
"1002",1,4,111,2,"A",1235,1,"C","true",78,4
"1003",1,4,111,4,"K",2305,1,"O","true",79,4
"1004",1,4,111,3,"G",1555,1,"J","true",80,4
"1005",1,4,111,3,"E",2020,1,"I","true+1",82,4
"1006",1,4,111,4,"A",1010,1,"E","true",83,4
"1007",1,4,111,5,"E",1896,1,"K","true+1",84,4
"1008",1,4,111,2,"E",1115,1,"F","true-1",85,4
"1009",1,4,111,2,"A",2380,1,"B","true-1",86,4
"1010",1,4,111,4,"G",1740,1,"K","true",87,4
"1011",1,4,111,4,"G",1573,1,"J","true-1",88,4
"1012",1,4,111,5,"A",2468,1,"G","true+1",89,4
"1013",1,4,111,2,"I",1536,1,"J","true-1",90,4
"1014",1,4,111,3,"I",1857,1,"L","true",91,4
"1015",1,4,111,4,"I",3014,1,"N","true+1",92,4
"1016",1,4,111,5,"E",2140,1,"J","true",93,4
"1017",1,4,111,3,"E",1141,1,"H","true",94,4
"1018",1,4,111,4,"K",1302,1,"P","true+1",95,4
"1019",1,5,111,3,"I",1515,1,"K","true-1",1,2
"1020",1,5,111,3,"K",1485,1,"O","true+1",2,2
"1021",1,5,111,5,"I",1952,1,"M","true-1",3,2
"1022",1,5,111,4,"E",1856,1,"J","true+1",4,2
"1023",1,5,111,4,"K",1573,1,"O","true",5,2
"1024",1,5,111,5,"E",2964,1,"I","true-1",6,2
"1025",1,5,111,2,"A",1068,1,"C","true",7,2
"1026",1,5,111,3,"E",1728,1,"I","true+1",8,2
"1027",1,5,111,4,"A",1161,1,"E","true",9,2
"1028",1,5,111,3,"E",1465,1,"H","true",10,2
"1029",1,5,111,3,"G",1837,1,"J","true",11,2
"1030",1,5,111,4,"G",2130,1,"K","true",12,2
"1031",1,5,111,3,"A",971,1,"D","true",13,2
"1032",1,5,111,4,"K",1331,1,"P","true+1",14,2
"1033",1,5,111,3,"G",2092,1,"K","true+1",15,2
"1034",1,5,111,5,"G",2711,1,"M","true+1",16,2
"1035",1,5,111,5,"E",2985,1,"J","true",17,2
"1036",1,5,111,4,"A",1040,1,"D","true-1",18,2
"1037",1,5,111,3,"A",1285,1,"C","true-1",19,2
"1038",1,5,111,3,"K",2336,1,"N","true",20,2
"1039",1,5,111,4,"I",2129,1,"N","true+1",21,2
"1040",1,5,111,2,"K",1355,1,"L","true-1",22,2
"1041",1,5,111,5,"I",1971,1,"O","true+1",23,2
"1042",1,5,111,2,"K",1171,1,"M","true",24,2
"1043",1,5,111,5,"I",1952,1,"N","true",26,2
"1044",1,5,111,2,"E",1072,1,"H","true+1",27,2
"1045",1,5,111,5,"G",2692,1,"L","true",28,2
"1046",1,5,111,4,"I",1719,1,"M","true",29,2
"1047",1,5,111,5,"A",2321,1,"G","true+1",30,2
"1048",1,5,111,2,"E",947,1,"G","true",31,2
"1049",1,5,111,4,"E",1633,1,"I","true",33,2
"1050",1,5,111,3,"C",2318,1,"F","true",34,2
"1051",1,5,111,4,"K",1792,1,"N","true-1",35,2
"1052",1,5,111,2,"C",1367,1,"F","true+1",36,2
"1053",1,5,111,2,"C",1087,1,"E","true",37,2
"1054",1,5,111,5,"C",2962,1,"I","true+1",38,2
"1055",1,5,111,3,"E",1626,1,"G","true-1",39,2
"1056",1,5,111,4,"G",3351,1,"J","true-1",40,2
"1057",1,5,111,3,"C",1232,1,"F","true",41,2
"1058",1,5,111,2,"C",1229,1,"D","true-1",42,2
"1059",1,5,111,4,"G",2410,1,"K","true",43,2
"1060",1,5,111,3,"C",1688,1,"E","true-1",44,2
"1061",1,5,111,2,"E",1299,1,"F","true-1",45,2
"1062",1,5,111,5,"G",3006,1,"K","true-1",46,2
"1063",1,5,111,3,"G",2372,1,"J","true",47,2
"1064",1,5,111,2,"G",1076,1,"I","true",48,2
"1065",1,5,111,3,"I",1544,1,"M","true+1",49,2
"1066",1,5,111,4,"A",1420,1,"F","true+1",51,2
"1067",1,5,111,4,"C",1858,1,"G","true",52,2
"1068",1,5,111,5,"C",2480,1,"G","true-1",54,2
"1069",1,5,111,4,"C",2765,1,"F","true-1",57,2
"1070",1,5,111,4,"A",1181,1,"E","true",58,2
"1071",1,5,111,2,"C",924,1,"E","true",59,2
"1072",1,5,111,4,"G",1995,1,"L","true+1",61,2
"1073",1,5,111,2,"I",1097,1,"J","true-1",62,2
"1074",1,5,111,3,"G",1611,1,"I","true-1",63,2
"1075",1,5,111,4,"E",1337,1,"H","true-1",64,2
"1076",1,5,111,3,"K",1576,1,"N","true",66,2
"1077",1,5,111,2,"A",2376,1,"C","true",67,2
"1078",1,5,111,5,"A",984,1,"F","true",68,2
"1079",1,5,111,4,"K",1391,1,"O","true",69,2
"1080",1,5,111,5,"G",1878,1,"L","true",70,2
"1081",1,5,111,2,"I",1609,1,"K","true",71,2
"1082",1,5,111,4,"E",2359,1,"I","true",72,2
"1083",1,5,111,4,"I",1656,1,"L","true-1",73,2
"1084",1,5,111,5,"C",2404,1,"H","true",74,2
"1085",1,5,111,2,"G",1059,1,"I","true",75,2
"1086",1,5,111,4,"I",3479,1,"M","true",76,2
"1087",1,5,111,3,"A",1099,1,"D","true",77,2
"1088",1,5,111,5,"A",1428,1,"E","true-1",79,2
"1089",1,5,111,5,"A",1033,1,"F","true",80,2
"1090",1,5,111,2,"K",1326,1,"N","true+1",81,2
"1091",1,5,111,3,"A",1608,1,"E","true+1",82,2
"1092",1,5,111,3,"I",1878,1,"L","true",83,2
"1093",1,5,111,2,"A",858,1,"B","true-1",84,2
"1094",1,5,111,5,"E",2518,1,"J","true",85,2
"1095",1,5,111,4,"C",1376,1,"G","true",86,2
"1096",1,5,111,2,"E",1368,1,"G","true",87,2
"1097",1,5,111,3,"I",1055,1,"L","true",88,2
"1098",1,5,111,5,"E",1924,1,"K","true+1",89,2
"1099",1,5,111,2,"K",960,1,"M","true",91,2
"1100",1,5,111,2,"G",1048,1,"H","true-1",92,2
"1101",1,5,111,2,"I",1053,1,"L","true+1",93,2
"1102",1,5,111,4,"C",1649,1,"H","true+1",94,2
"1103",1,5,111,2,"I",973,1,"K","true",95,2
"1104",1,5,111,2,"G",1477,1,"J","true+1",96,2
"1105",1,5,111,2,"K",693,1,"M","true",2,3
"1106",1,5,111,2,"E",856,1,"G","true",3,3
"1107",1,5,111,2,"I",805,1,"K","true",4,3
"1108",1,5,111,5,"I",2451,1,"O","true+1",5,3
"1109",1,5,111,3,"G",1168,1,"J","true",6,3
"1110",1,5,111,4,"E",1423,1,"I","true",7,3
"1111",1,5,111,4,"E",1877,1,"I","true",8,3
"1112",1,5,111,4,"G",1976,1,"L","true+1",9,3
"1113",1,5,111,4,"A",1560,1,"E","true",10,3
"1114",1,5,111,5,"A",1480,1,"G","true+1",11,3
"1115",1,5,111,4,"I",2004,1,"L","true-1",13,3
"1116",1,5,111,2,"A",1186,1,"C","true",14,3
"1117",1,5,111,3,"G",3009,1,"K","true+1",15,3
"1118",1,5,111,3,"I",1272,1,"L","true",16,3
"1119",1,5,111,4,"E",1588,1,"H","true-1",17,3
"1120",1,5,111,5,"C",2291,1,"G","true-1",18,3
"1121",1,5,111,3,"K",1990,1,"O","true+1",19,3
"1122",1,5,111,3,"C",2153,1,"E","true-1",21,3
"1123",1,5,111,4,"C",2594,1,"H","true+1",22,3
"1124",1,5,111,3,"A",872,1,"D","true",23,3
"1125",1,5,111,5,"G",3140,1,"M","true+1",24,3
"1126",1,5,111,2,"G",1381,1,"J","true+1",25,3
"1127",1,5,111,3,"E",2092,1,"G","true-1",26,3
"1128",1,5,111,4,"G",4039,1,"K","true",27,3
"1129",1,5,111,4,"I",1781,1,"M","true",28,3
"1130",1,5,111,5,"A",1068,1,"F","true",29,3
"1131",1,5,111,4,"C",2320,1,"F","true-1",30,3
"1132",1,5,111,2,"I",2337,1,"L","true+1",31,3
"1133",1,5,111,2,"C",1119,1,"F","true+1",33,3
"1134",1,5,111,4,"A",1521,1,"D","true-1",34,3
"1135",1,5,111,3,"A",1059,1,"E","true+1",35,3
"1136",1,5,111,4,"E",1623,1,"J","true+1",36,3
"1137",1,5,111,4,"A",949,1,"E","true",37,3
"1138",1,5,111,3,"E",1597,1,"H","true",38,3
"1139",1,5,111,3,"I",1100,1,"M","true+1",39,3
"1140",1,5,111,2,"E",1038,1,"H","true+1",40,3
"1141",1,5,111,5,"G",2515,1,"L","true",41,3
"1142",1,5,111,5,"G",3789,1,"K","true-1",42,3
"1143",1,5,111,5,"A",1044,1,"F","true",43,3
"1144",1,5,111,2,"G",1538,1,"I","true",45,3
"1145",1,5,111,5,"G",2723,1,"L","true",46,3
"1146",1,5,111,2,"K",1861,1,"L","true-1",47,3
"1147",1,5,111,3,"E",2553,1,"I","true+1",48,3
"1148",1,5,111,4,"I",1330,1,"M","true",49,3
"1149",1,5,111,5,"C",2283,1,"H","true",50,3
"1150",1,5,111,3,"A",766,1,"D","true",51,3
"1151",1,5,111,5,"A",1182,1,"E","true-1",52,3
"1152",1,5,111,4,"G",2269,1,"K","true",53,3
"1153",1,5,111,4,"K",1105,1,"P","true+1",54,3
"1154",1,5,111,4,"I",2499,1,"N","true+1",55,3
"1155",1,5,111,4,"K",2589,1,"N","true-1",56,3
"1156",1,5,111,5,"C",2293,1,"I","true+1",57,3
"1157",1,5,111,2,"C",1640,1,"E","true",58,3
"1158",1,5,111,2,"G",1989,1,"H","true-1",59,3
"1159",1,5,111,4,"K",1156,1,"O","true",60,3
"1160",1,5,111,2,"K",1445,1,"N","true+1",61,3
"1161",1,5,111,5,"E",1657,1,"J","true",62,3
"1162",1,5,111,2,"K",773,1,"M","true",63,3
"1163",1,5,111,2,"A",997,1,"D","true+1",64,3
"1164",1,5,111,3,"C",1355,1,"F","true",65,3
"1165",1,5,111,3,"K",1294,1,"N","true",67,3
"1166",1,5,111,4,"A",2329,1,"F","true+1",68,3
"1167",1,5,111,2,"E",1114,1,"G","true",69,3
"1168",1,5,111,5,"C",1804,1,"H","true",70,3
"1169",1,5,111,5,"E",2546,1,"I","true-1",71,3
"1170",1,5,111,2,"C",1227,1,"D","true-1",72,3
"1171",1,5,111,4,"C",2296,1,"G","true",73,3
"1172",1,5,111,3,"G",1770,1,"J","true",74,3
"1173",1,5,111,3,"K",1922,1,"N","true",75,3
"1174",1,5,111,3,"G",2820,1,"I","true-1",76,3
"1175",1,5,111,3,"I",1522,1,"L","true",77,3
"1176",1,5,111,3,"A",1082,1,"C","true-1",80,3
"1177",1,5,111,2,"G",1453,1,"I","true",81,3
"1178",1,5,111,4,"K",2466,1,"O","true",82,3
"1179",1,5,111,5,"I",3405,1,"N","true",83,3
"1180",1,5,111,2,"C",1068,1,"E","true",85,3
"1181",1,5,111,3,"C",1008,1,"F","true",86,3
"1182",1,5,111,3,"I",1671,1,"K","true-1",87,3
"1183",1,5,111,2,"A",866,1,"B","true-1",88,3
"1184",1,5,111,3,"C",1742,1,"G","true+1",89,3
"1185",1,5,111,5,"E",2790,1,"K","true+1",90,3
"1186",1,5,111,2,"I",999,1,"K","true",91,3
"1187",1,5,111,2,"E",989,1,"F","true-1",92,3
"1188",1,5,111,5,"E",2020,1,"J","true",93,3
"1189",1,5,111,4,"C",1938,1,"G","true",94,3
"1190",1,5,111,2,"A",851,1,"C","true",95,3
"1191",1,5,111,5,"I",1823,1,"M","true-1",96,3
"1192",1,5,111,3,"A",974,1,"E","true+1",1,4
"1193",1,5,111,3,"K",1110,1,"N","true",2,4
"1194",1,5,111,4,"E",1400,1,"J","true+1",3,4
"1195",1,5,111,2,"K",1103,1,"L","true-1",4,4
"1196",1,5,111,3,"C",1633,1,"E","true-1",5,4
"1197",1,5,111,5,"A",1374,1,"E","true-1",6,4
"1198",1,5,111,2,"A",1334,1,"D","true+1",7,4
"1199",1,5,111,4,"K",2255,1,"N","true-1",8,4
"1200",1,5,111,2,"I",2371,1,"K","true",9,4
"1201",1,5,111,2,"C",1251,1,"D","true-1",10,4
"1202",1,5,111,3,"A",1552,1,"C","true-1",11,4
"1203",1,5,111,3,"E",2336,1,"H","true",12,4
"1204",1,5,111,4,"I",2065,1,"M","true",13,4
"1205",1,5,111,5,"G",2413,1,"L","true",14,4
"1206",1,5,111,5,"C",2171,1,"G","true-1",15,4
"1207",1,5,111,2,"G",1033,1,"H","true-1",17,4
"1208",1,5,111,3,"I",1598,1,"M","true+1",18,4
"1209",1,5,111,4,"E",1645,1,"H","true-1",19,4
"1210",1,5,111,4,"C",2169,1,"G","true",20,4
"1211",1,5,111,3,"G",2179,1,"J","true",22,4
"1212",1,5,111,3,"I",1419,1,"L","true",23,4
"1213",1,5,111,3,"C",1104,1,"F","true",24,4
"1214",1,5,111,5,"A",1219,1,"F","true",25,4
"1215",1,5,111,3,"K",2272,1,"N","true",26,4
"1216",1,5,111,5,"A",2292,1,"F","true",27,4
"1217",1,5,111,5,"E",2116,1,"K","true+1",29,4
"1218",1,5,111,3,"E",2078,1,"H","true",30,4
"1219",1,5,111,4,"E",2185,1,"I","true",31,4
"1220",1,5,111,5,"G",2320,1,"L","true",32,4
"1221",1,5,111,5,"C",2706,1,"I","true+1",33,4
"1222",1,5,111,5,"A",1044,1,"G","true+1",34,4
"1223",1,5,111,3,"I",1371,1,"K","true-1",36,4
"1224",1,5,111,5,"E",1747,1,"J","true",37,4
"1225",1,5,111,2,"K",1323,1,"M","true",38,4
"1226",1,5,111,4,"A",1477,1,"E","true",39,4
"1227",1,5,111,2,"K",776,1,"M","true",40,4
"1228",1,5,111,2,"A",1000,1,"C","true",41,4
"1229",1,5,111,5,"I",2735,1,"N","true",42,4
"1230",1,5,111,5,"C",1818,1,"H","true",44,4
"1231",1,5,111,2,"K",1119,1,"N","true+1",45,4
"1232",1,5,111,4,"I",2433,1,"N","true+1",46,4
"1233",1,5,111,5,"I",1710,1,"M","true-1",47,4
"1234",1,5,111,5,"I",3737,1,"O","true+1",48,4
"1235",1,5,111,2,"E",994,1,"G","true",49,4
"1236",1,5,111,4,"E",1528,1,"I","true",50,4
"1237",1,5,111,2,"G",1135,1,"I","true",52,4
"1238",1,5,111,4,"I",3571,1,"L","true-1",54,4
"1239",1,5,111,4,"K",1843,1,"O","true",55,4
"1240",1,5,111,2,"C",2329,1,"E","true",56,4
"1241",1,5,111,4,"G",1818,1,"K","true",57,4
"1242",1,5,111,4,"C",1184,1,"G","true",58,4
"1243",1,5,111,3,"C",1935,1,"F","true",59,4
"1244",1,5,111,2,"A",864,1,"C","true",60,4
"1245",1,5,111,4,"G",1772,1,"L","true+1",61,4
"1246",1,5,111,3,"A",1283,1,"D","true",62,4
"1247",1,5,111,4,"G",2542,1,"J","true-1",63,4
"1248",1,5,111,2,"I",1096,1,"J","true-1",64,4
"1249",1,5,111,4,"C",1834,1,"F","true-1",65,4
"1250",1,5,111,3,"E",2559,1,"I","true+1",66,4
"1251",1,5,111,2,"I",2056,1,"K","true",67,4
"1252",1,5,111,3,"E",1236,1,"G","true-1",68,4
"1253",1,5,111,3,"G",2017,1,"K","true+1",69,4
"1254",1,5,111,4,"I",2591,1,"M","true",70,4
"1255",1,5,111,5,"E",1702,1,"J","true",71,4
"1256",1,5,111,5,"E",1825,1,"I","true-1",72,4
"1257",1,5,111,2,"G",1223,1,"I","true",73,4
"1258",1,5,111,2,"A",1364,1,"B","true-1",74,4
"1259",1,5,111,3,"G",2428,1,"J","true",75,4
"1260",1,5,111,2,"E",1705,1,"H","true+1",76,4
"1261",1,5,111,5,"G",2884,1,"M","true+1",77,4
"1262",1,5,111,3,"K",2479,1,"O","true+1",78,4
"1263",1,5,111,4,"A",1082,1,"E","true",79,4
"1264",1,5,111,4,"C",1885,1,"H","true+1",80,4
"1265",1,5,111,2,"I",1536,1,"L","true+1",81,4
"1266",1,5,111,2,"E",865,1,"G","true",82,4
"1267",1,5,111,4,"A",1485,1,"D","true-1",83,4
"1268",1,5,111,2,"E",928,1,"F","true-1",84,4
"1269",1,5,111,3,"I",921,1,"L","true",85,4
"1270",1,5,111,3,"C",979,1,"G","true+1",86,4
"1271",1,5,111,3,"G",1538,1,"I","true-1",89,4
"1272",1,5,111,4,"G",3171,1,"K","true",90,4
"1273",1,5,111,5,"C",1843,1,"H","true",91,4
"1274",1,5,111,2,"G",1369,1,"J","true+1",92,4
"1275",1,5,111,2,"C",800,1,"E","true",93,4
"1276",1,5,111,3,"A",879,1,"D","true",94,4
"1277",1,5,111,3,"K",1338,1,"M","true-1",95,4
"1278",1,5,111,4,"A",1059,1,"F","true+1",96,4
"1279",1,6,111,2,"E",894,1,"G","true",2,2
"1280",1,6,111,3,"C",1414,1,"E","true-1",3,2
"1281",1,6,111,2,"I",1143,1,"L","true+1",4,2
"1282",1,6,111,4,"I",1698,1,"L","true-1",5,2
"1283",1,6,111,2,"C",882,1,"E","true",6,2
"1284",1,6,111,3,"I",2248,1,"M","true+1",7,2
"1285",1,6,111,4,"I",1416,1,"N","true+1",8,2
"1286",1,6,111,2,"K",936,1,"M","true",9,2
"1287",1,6,111,2,"I",1954,1,"J","true-1",11,2
"1288",1,6,111,3,"A",2220,1,"D","true",12,2
"1289",1,6,111,5,"A",1013,1,"F","true",13,2
"1290",1,6,111,3,"E",1397,1,"H","true",14,2
"1291",1,6,111,2,"G",1404,1,"J","true+1",15,2
"1292",1,6,111,4,"E",1200,1,"J","true+1",16,2
"1293",1,6,111,4,"K",814,1,"P","true+1",17,2
"1294",1,6,111,2,"K",1074,1,"L","true-1",18,2
"1295",1,6,111,5,"G",4100,1,"K","true-1",19,2
"1296",1,6,111,2,"E",909,1,"G","true",21,2
"1297",1,6,111,2,"C",1177,1,"E","true",22,2
"1298",1,6,111,4,"I",2009,1,"M","true",23,2
"1299",1,6,111,5,"G",6928,1,"L","true",24,2
"1300",1,6,111,4,"G",2162,1,"L","true+1",25,2
"1301",1,6,111,3,"G",1440,1,"J","true",26,2
"1302",1,6,111,2,"K",1038,1,"N","true+1",27,2
"1303",1,6,111,2,"I",963,1,"K","true",28,2
"1304",1,6,111,5,"E",2769,1,"K","true+1",29,2
"1305",1,6,111,4,"A",3546,1,"E","true",30,2
"1306",1,6,111,5,"C",2333,1,"G","true-1",31,2
"1307",1,6,111,5,"I",4093,1,"N","true",32,2
"1308",1,6,111,2,"A",1174,1,"C","true",33,2
"1309",1,6,111,3,"E",2326,1,"I","true+1",34,2
"1310",1,6,111,5,"I",3498,1,"M","true-1",36,2
"1311",1,6,111,2,"E",1226,1,"F","true-1",37,2
"1312",1,6,111,4,"G",2757,1,"J","true-1",38,2
"1313",1,6,111,4,"G",3979,1,"K","true",39,2
"1314",1,6,111,2,"I",1268,1,"K","true",40,2
"1315",1,6,111,3,"E",2215,1,"H","true",41,2
"1316",1,6,111,4,"E",2271,1,"H","true-1",42,2
"1317",1,6,111,5,"A",1850,1,"G","true+1",43,2
"1318",1,6,111,3,"K",2442,1,"N","true",44,2
"1319",1,6,111,4,"C",2048,1,"G","true",45,2
"1320",1,6,111,3,"I",3990,1,"L","true",46,2
"1321",1,6,111,5,"C",3029,1,"I","true+1",48,2
"1322",1,6,111,3,"G",3312,1,"I","true-1",49,2
"1323",1,6,111,2,"E",1211,1,"H","true+1",50,2
"1324",1,6,111,3,"K",1915,1,"O","true+1",51,2
"1325",1,6,111,4,"G",1745,1,"K","true",52,2
"1326",1,6,111,3,"C",1348,1,"F","true",53,2
"1327",1,6,111,5,"G",3735,1,"L","true",54,2
"1328",1,6,111,3,"C",3072,1,"G","true+1",55,2
"1329",1,6,111,3,"G",1667,1,"K","true+1",56,2
"1330",1,6,111,5,"A",974,1,"F","true",57,2
"1331",1,6,111,3,"C",2110,1,"F","true",58,2
"1332",1,6,111,3,"A",1617,1,"D","true",59,2
"1333",1,6,111,3,"K",1906,1,"N","true",60,2
"1334",1,6,111,3,"E",1589,1,"G","true-1",61,2
"1335",1,6,111,4,"C",1920,1,"G","true",62,2
"1336",1,6,111,2,"C",2205,1,"D","true-1",63,2
"1337",1,6,111,4,"E",1819,1,"I","true",64,2
"1338",1,6,111,4,"I",1900,1,"M","true",65,2
"1339",1,6,111,3,"I",2908,1,"L","true",66,2
"1340",1,6,111,3,"K",2255,1,"M","true-1",67,2
"1341",1,6,111,5,"E",4519,1,"J","true",68,2
"1342",1,6,111,2,"A",2053,1,"D","true+1",69,2
"1343",1,6,111,4,"E",3542,1,"I","true",70,2
"1344",1,6,111,5,"C",1857,1,"H","true",72,2
"1345",1,6,111,4,"K",3850,1,"O","true",73,2
"1346",1,6,111,2,"G",1506,1,"I","true",74,2
"1347",1,6,111,5,"I",3757,1,"O","true+1",75,2
"1348",1,6,111,3,"A",1547,1,"C","true-1",76,2
"1349",1,6,111,2,"G",3350,1,"I","true",77,2
"1350",1,6,111,5,"E",2386,1,"I","true-1",78,2
"1351",1,6,111,3,"I",1597,1,"K","true-1",79,2
"1352",1,6,111,2,"G",1906,1,"H","true-1",80,2
"1353",1,6,111,3,"A",4648,1,"E","true+1",82,2
"1354",1,6,111,3,"G",3305,1,"J","true",83,2
"1355",1,6,111,4,"C",5748,1,"F","true-1",84,2
"1356",1,6,111,4,"A",3048,1,"E","true",85,2
"1357",1,6,111,4,"A",1254,1,"D","true-1",86,2
"1358",1,6,111,2,"A",3678,1,"B","true-1",87,2
"1359",1,6,111,5,"I",3876,1,"N","true",88,2
"1360",1,6,111,5,"C",4458,1,"H","true",89,2
"1361",1,6,111,2,"K",1475,1,"M","true",91,2
"1362",1,6,111,4,"K",1214,1,"N","true-1",92,2
"1363",1,6,111,2,"C",1062,1,"F","true+1",93,2
"1364",1,6,111,4,"A",2097,1,"F","true+1",94,2
"1365",1,6,111,2,"A",1098,1,"C","true",95,2
"1366",1,6,111,5,"E",3194,1,"J","true",96,2
"1367",1,6,111,5,"A",1171,1,"F","true",1,3
"1368",1,6,111,5,"I",2715,1,"N","true",2,3
"1369",1,6,111,3,"I",1318,1,"L","true",3,3
"1370",1,6,111,3,"E",1442,1,"H","true",5,3
"1371",1,6,111,3,"A",1991,1,"D","true",6,3
"1372",1,6,111,5,"G",6194,1,"L","true",7,3
"1373",1,6,111,4,"C",3521,1,"F","true-1",9,3
"1374",1,6,111,3,"I",1943,1,"K","true-1",10,3
"1375",1,6,111,5,"A",1858,1,"G","true+1",11,3
"1376",1,6,111,3,"C",2162,1,"F","true",12,3
"1377",1,6,111,3,"G",3272,1,"K","true+1",13,3
"1378",1,6,111,2,"C",1419,1,"F","true+1",14,3
"1379",1,6,111,4,"C",1884,1,"G","true",15,3
"1380",1,6,111,2,"E",1689,1,"H","true+1",16,3
"1381",1,6,111,2,"A",1306,1,"C","true",17,3
"1382",1,6,111,4,"K",2477,1,"N","true-1",18,3
"1383",1,6,111,4,"E",2969,1,"I","true",20,3
"1384",1,6,111,2,"I",961,1,"K","true",21,3
"1385",1,6,111,5,"C",2151,1,"H","true",22,3
"1386",1,6,111,4,"G",3010,1,"K","true",23,3
"1387",1,6,111,2,"G",1210,1,"J","true+1",24,3
"1388",1,6,111,3,"C",2707,1,"G","true+1",25,3
"1389",1,6,111,3,"E",3022,1,"I","true+1",26,3
"1390",1,6,111,4,"K",2961,1,"O","true",27,3
"1391",1,6,111,4,"C",1911,1,"G","true",28,3
"1392",1,6,111,4,"A",3762,1,"F","true+1",29,3
"1393",1,6,111,2,"C",4688,1,"E","true",30,3
"1394",1,6,111,5,"G",2726,1,"M","true+1",31,3
"1395",1,6,111,5,"I",2772,1,"O","true+1",32,3
"1396",1,6,111,5,"E",6852,1,"K","true+1",33,3
"1397",1,6,111,2,"I",1701,1,"L","true+1",34,3
"1398",1,6,111,4,"C",2325,1,"H","true+1",35,3
"1399",1,6,111,4,"E",1475,1,"I","true",36,3
"1400",1,6,111,5,"E",2249,1,"J","true",37,3
"1401",1,6,111,3,"G",2337,1,"I","true-1",38,3
"1402",1,6,111,2,"K",1477,1,"N","true+1",40,3
"1403",1,6,111,2,"A",1170,1,"C","true",41,3
"1404",1,6,111,3,"K",2811,1,"M","true-1",42,3
"1405",1,6,111,5,"C",3291,1,"H","true",43,3
"1406",1,6,111,2,"I",1148,1,"K","true",44,3
"1407",1,6,111,3,"A",4751,1,"E","true+1",45,3
"1408",1,6,111,4,"G",3931,1,"K","true",47,3
"1409",1,6,111,2,"E",2331,1,"G","true",48,3
"1410",1,6,111,2,"A",1436,1,"D","true+1",49,3
"1411",1,6,111,3,"C",1537,1,"E","true-1",50,3
"1412",1,6,111,2,"G",1746,1,"I","true",51,3
"1413",1,6,111,3,"I",1837,1,"L","true",52,3
"1414",1,6,111,3,"A",1546,1,"C","true-1",53,3
"1415",1,6,111,2,"A",1341,1,"B","true-1",54,3
"1416",1,6,111,4,"A",2102,1,"E","true",55,3
"1417",1,6,111,4,"G",2177,1,"J","true-1",56,3
"1418",1,6,111,2,"K",1617,1,"L","true-1",57,3
"1419",1,6,111,4,"E",3922,1,"H","true-1",58,3
"1420",1,6,111,4,"I",2912,1,"M","true",59,3
"1421",1,6,111,4,"E",1915,1,"J","true+1",60,3
"1422",1,6,111,2,"C",790,1,"E","true",61,3
"1423",1,6,111,5,"C",1985,1,"G","true-1",62,3
"1424",1,6,111,2,"E",900,1,"F","true-1",63,3
"1425",1,6,111,5,"I",2540,1,"M","true-1",64,3
"1426",1,6,111,3,"G",5181,1,"J","true",65,3
"1427",1,6,111,2,"I",1501,1,"J","true-1",66,3
"1428",1,6,111,3,"K",2310,1,"N","true",67,3
"1429",1,6,111,2,"G",1497,1,"H","true-1",68,3
"1430",1,6,111,5,"G",3033,1,"L","true",69,3
"1431",1,6,111,3,"E",1932,1,"H","true",70,3
"1432",1,6,111,4,"A",2709,1,"D","true-1",71,3
"1433",1,6,111,5,"C",6632,1,"I","true+1",72,3
"1434",1,6,111,2,"K",2075,1,"M","true",73,3
"1435",1,6,111,4,"I",3977,1,"M","true",74,3
"1436",1,6,111,5,"G",3589,1,"K","true-1",76,3
"1437",1,6,111,5,"A",1544,1,"E","true-1",77,3
"1438",1,6,111,3,"C",4779,1,"F","true",78,3
"1439",1,6,111,2,"E",2020,1,"G","true",79,3
"1440",1,6,111,3,"K",2780,1,"O","true+1",80,3
"1441",1,6,111,3,"A",2725,1,"D","true",81,3
"1442",1,6,111,2,"G",2106,1,"I","true",82,3
"1443",1,6,111,3,"G",2477,1,"J","true",83,3
"1444",1,6,111,5,"A",1091,1,"F","true",84,3
"1445",1,6,111,2,"K",1108,1,"M","true",85,3
"1446",1,6,111,3,"I",2111,1,"M","true+1",86,3
"1447",1,6,111,4,"A",1306,1,"E","true",87,3
"1448",1,6,111,5,"E",2789,1,"J","true",88,3
"1449",1,6,111,4,"I",3184,1,"N","true+1",89,3
"1450",1,6,111,4,"I",3059,1,"L","true-1",90,3
"1451",1,6,111,2,"C",1323,1,"D","true-1",91,3
"1452",1,6,111,4,"K",2505,1,"O","true",92,3
"1453",1,6,111,3,"K",4412,1,"N","true",93,3
"1454",1,6,111,4,"K",2962,1,"P","true+1",96,3
"1455",1,6,111,2,"A",1671,1,"C","true",1,4
"1456",1,6,111,4,"C",2042,1,"G","true",2,4
"1457",1,6,111,2,"I",1574,1,"K","true",4,4
"1458",1,6,111,3,"G",4470,1,"I","true-1",5,4
"1459",1,6,111,2,"I",2217,1,"J","true-1",6,4
"1460",1,6,111,5,"G",2450,1,"L","true",7,4
"1461",1,6,111,3,"A",2602,1,"D","true",8,4
"1462",1,6,111,3,"K",2376,1,"M","true-1",9,4
"1463",1,6,111,2,"I",2640,1,"L","true+1",10,4
"1464",1,6,111,4,"G",2967,1,"K","true",12,4
"1465",1,6,111,4,"G",2324,1,"L","true+1",13,4
"1466",1,6,111,4,"C",2650,1,"G","true",14,4
"1467",1,6,111,3,"E",1099,1,"H","true",15,4
"1468",1,6,111,2,"K",1043,1,"L","true-1",16,4
"1469",1,6,111,3,"E",1177,1,"G","true-1",17,4
"1470",1,6,111,4,"E",1849,1,"I","true",18,4
"1471",1,6,111,3,"G",2041,1,"J","true",19,4
"1472",1,6,111,3,"E",1863,1,"I","true+1",20,4
"1473",1,6,111,3,"I",2090,1,"K","true-1",21,4
"1474",1,6,111,3,"I",1434,1,"L","true",22,4
"1475",1,6,111,2,"I",1366,1,"K","true",23,4
"1476",1,6,111,3,"C",2627,1,"F","true",24,4
"1477",1,6,111,5,"I",2526,1,"N","true",25,4
"1478",1,6,111,4,"K",2548,1,"N","true-1",26,4
"1479",1,6,111,3,"C",5264,1,"E","true-1",28,4
"1480",1,6,111,2,"E",952,1,"G","true",30,4
"1481",1,6,111,3,"G",2627,1,"K","true+1",31,4
"1482",1,6,111,5,"I",2998,1,"M","true-1",32,4
"1483",1,6,111,5,"I",2859,1,"O","true+1",33,4
"1484",1,6,111,5,"E",2244,1,"K","true+1",34,4
"1485",1,6,111,4,"C",1714,1,"F","true-1",35,4
"1486",1,6,111,2,"K",845,1,"M","true",36,4
"1487",1,6,111,5,"G",3266,1,"K","true-1",37,4
"1488",1,6,111,4,"K",1526,1,"P","true+1",38,4
"1489",1,6,111,3,"A",1483,1,"E","true+1",39,4
"1490",1,6,111,4,"K",2201,1,"O","true",40,4
"1491",1,6,111,3,"A",2615,1,"C","true-1",41,4
"1492",1,6,111,3,"K",3519,1,"N","true",42,4
"1493",1,6,111,4,"A",1301,1,"E","true",43,4
"1494",1,6,111,4,"A",1629,1,"E","true",44,4
"1495",1,6,111,4,"I",2600,1,"M","true",45,4
"1496",1,6,111,4,"I",2110,1,"L","true-1",46,4
"1497",1,6,111,3,"C",2985,1,"G","true+1",47,4
"1498",1,6,111,5,"E",2672,1,"J","true",49,4
"1499",1,6,111,3,"G",1587,1,"J","true",50,4
"1500",1,6,111,2,"C",910,1,"E","true",51,4
"1501",1,6,111,2,"A",1001,1,"D","true+1",52,4
"1502",1,6,111,5,"A",1782,1,"E","true-1",53,4
"1503",1,6,111,3,"E",1409,1,"H","true",54,4
"1504",1,6,111,3,"C",1362,1,"F","true",55,4
"1505",1,6,111,5,"C",2104,1,"H","true",56,4
"1506",1,6,111,2,"G",2283,1,"J","true+1",57,4
"1507",1,6,111,3,"I",2104,1,"M","true+1",58,4
"1508",1,6,111,5,"A",1499,1,"F","true",59,4
"1509",1,6,111,2,"G",1420,1,"I","true",60,4
"1510",1,6,111,2,"E",1308,1,"G","true",61,4
"1511",1,6,111,5,"A",847,1,"F","true",62,4
"1512",1,6,111,5,"A",1077,1,"G","true+1",63,4
"1513",1,6,111,5,"C",4786,1,"I","true+1",64,4
"1514",1,6,111,4,"E",1990,1,"J","true+1",65,4
"1515",1,6,111,4,"E",2857,1,"H","true-1",66,4
"1516",1,6,111,4,"G",2201,1,"J","true-1",67,4
"1517",1,6,111,5,"E",2551,1,"J","true",68,4
"1518",1,6,111,2,"C",1650,1,"F","true+1",69,4
"1519",1,6,111,5,"G",3355,1,"M","true+1",70,4
"1520",1,6,111,3,"I",1944,1,"L","true",71,4
"1521",1,6,111,5,"I",3604,1,"N","true",72,4
"1522",1,6,111,4,"C",4705,1,"H","true+1",73,4
"1523",1,6,111,3,"K",2637,1,"N","true",74,4
"1524",1,6,111,4,"K",2419,1,"O","true",75,4
"1525",1,6,111,4,"A",1299,1,"D","true-1",76,4
"1526",1,6,111,4,"A",2483,1,"F","true+1",77,4
"1527",1,6,111,3,"A",1081,1,"D","true",78,4
"1528",1,6,111,5,"C",3631,1,"G","true-1",79,4
"1529",1,6,111,5,"G",4514,1,"L","true",80,4
"1530",1,6,111,2,"K",2089,1,"N","true+1",82,4
"1531",1,6,111,2,"C",1559,1,"E","true",84,4
"1532",1,6,111,2,"A",1029,1,"C","true",85,4
"1533",1,6,111,2,"E",1400,1,"F","true-1",86,4
"1534",1,6,111,4,"I",2422,1,"M","true",87,4
"1535",1,6,111,5,"C",2009,1,"H","true",88,4
"1536",1,6,111,2,"G",1753,1,"H","true-1",89,4
"1537",1,6,111,3,"K",2428,1,"O","true+1",90,4
"1538",1,6,111,2,"C",1031,1,"D","true-1",91,4
"1539",1,6,111,4,"E",3770,1,"I","true",92,4
"1540",1,6,111,4,"G",2235,1,"K","true",93,4
"1541",1,6,111,5,"E",2585,1,"I","true-1",94,4
"1542",1,6,111,2,"K",1124,1,"M","true",95,4
"1543",1,6,111,2,"A",914,1,"B","true-1",96,4
"1544",1,7,111,2,"E",1317,1,"F","true-1",1,2
"1545",1,7,111,4,"A",1371,1,"D","true-1",2,2
"1546",1,7,111,2,"C",2195,1,"E","true",3,2
"1547",1,7,111,4,"K",1185,1,"P","true+1",4,2
"1548",1,7,111,5,"I",2500,1,"N","true",5,2
"1549",1,7,111,5,"G",2602,1,"M","true+1",7,2
"1550",1,7,111,4,"G",2446,1,"J","true-1",9,2
"1551",1,7,111,4,"C",1659,1,"G","true",10,2
"1552",1,7,111,2,"K",1012,1,"M","true",11,2
"1553",1,7,111,4,"C",1492,1,"H","true+1",12,2
"1554",1,7,111,3,"E",1604,1,"H","true",13,2
"1555",1,7,111,3,"E",1314,1,"H","true",14,2
"1556",1,7,111,5,"E",1765,1,"K","true+1",15,2
"1557",1,7,111,4,"A",2155,1,"E","true",16,2
"1558",1,7,111,4,"K",1929,1,"O","true",17,2
"1559",1,7,111,3,"A",1105,1,"E","true+1",18,2
"1560",1,7,111,3,"K",1372,1,"N","true",19,2
"1561",1,7,111,3,"I",1124,1,"L","true",20,2
"1562",1,7,111,3,"G",1042,1,"J","true",21,2
"1563",1,7,111,5,"C",1416,1,"H","true",22,2
"1564",1,7,111,3,"A",1432,1,"D","true",23,2
"1565",1,7,111,4,"A",1843,1,"F","true+1",24,2
"1566",1,7,111,5,"A",889,1,"F","true",25,2
"1567",1,7,111,2,"K",665,1,"M","true",26,2
"1568",1,7,111,2,"C",1140,1,"D","true-1",27,2
"1569",1,7,111,4,"A",1284,1,"E","true",28,2
"1570",1,7,111,5,"I",1650,1,"N","true",29,2
"1571",1,7,111,5,"C",2954,1,"I","true+1",30,2
"1572",1,7,111,2,"G",1445,1,"H","true-1",31,2
"1573",1,7,111,3,"I",2110,1,"K","true-1",33,2
"1574",1,7,111,4,"C",2689,1,"F","true-1",34,2
"1575",1,7,111,5,"I",1858,1,"O","true+1",35,2
"1576",1,7,111,2,"I",1018,1,"K","true",36,2
"1577",1,7,111,5,"G",2090,1,"K","true-1",37,2
"1578",1,7,111,4,"E",2011,1,"H","true-1",38,2
"1579",1,7,111,2,"C",1555,1,"F","true+1",39,2
"1580",1,7,111,2,"E",825,1,"G","true",40,2
"1581",1,7,111,5,"A",2212,1,"G","true+1",41,2
"1582",1,7,111,3,"C",2156,1,"G","true+1",42,2
"1583",1,7,111,2,"A",778,1,"C","true",43,2
"1584",1,7,111,3,"K",1394,1,"O","true+1",44,2
"1585",1,7,111,4,"I",1541,1,"N","true+1",45,2
"1586",1,7,111,2,"E",1982,1,"H","true+1",46,2
"1587",1,7,111,2,"E",1745,1,"G","true",48,2
"1588",1,7,111,5,"G",2700,1,"L","true",49,2
"1589",1,7,111,2,"A",1077,1,"B","true-1",50,2
"1590",1,7,111,3,"I",2402,1,"M","true+1",51,2
"1591",1,7,111,2,"G",1632,1,"I","true",52,2
"1592",1,7,111,3,"K",1363,1,"N","true",53,2
"1593",1,7,111,5,"C",1620,1,"G","true-1",55,2
"1594",1,7,111,3,"E",2956,1,"I","true+1",56,2
"1595",1,7,111,2,"A",994,1,"C","true",57,2
"1596",1,7,111,5,"G",2861,1,"L","true",58,2
"1597",1,7,111,2,"K",1510,1,"L","true-1",59,2
"1598",1,7,111,2,"A",1225,1,"D","true+1",60,2
"1599",1,7,111,5,"C",3276,1,"H","true",61,2
"1600",1,7,111,4,"G",4402,1,"K","true",62,2
"1601",1,7,111,3,"G",3255,1,"K","true+1",63,2
"1602",1,7,111,4,"G",3856,1,"K","true",64,2
"1603",1,7,111,4,"E",1977,1,"J","true+1",65,2
"1604",1,7,111,5,"E",2540,1,"J","true",67,2
"1605",1,7,111,2,"I",916,1,"K","true",68,2
"1606",1,7,111,2,"G",2834,1,"J","true+1",69,2
"1607",1,7,111,3,"G",2037,1,"J","true",70,2
"1608",1,7,111,3,"A",739,1,"D","true",71,2
"1609",1,7,111,5,"I",2067,1,"M","true-1",72,2
"1610",1,7,111,3,"E",1214,1,"G","true-1",73,2
"1611",1,7,111,2,"K",1535,1,"N","true+1",74,2
"1612",1,7,111,2,"C",1111,1,"E","true",75,2
"1613",1,7,111,5,"E",2042,1,"J","true",76,2
"1614",1,7,111,4,"K",1224,1,"N","true-1",77,2
"1615",1,7,111,2,"I",2219,1,"J","true-1",78,2
"1616",1,7,111,4,"K",2041,1,"O","true",80,2
"1617",1,7,111,2,"G",2615,1,"I","true",81,2
"1618",1,7,111,4,"G",5487,1,"L","true+1",82,2
"1619",1,7,111,2,"I",917,1,"L","true+1",83,2
"1620",1,7,111,5,"A",3011,1,"E","true-1",84,2
"1621",1,7,111,3,"A",1140,1,"C","true-1",85,2
"1622",1,7,111,4,"I",2292,1,"M","true",86,2
"1623",1,7,111,3,"G",2204,1,"I","true-1",87,2
"1624",1,7,111,4,"E",1642,1,"I","true",88,2
"1625",1,7,111,4,"I",1744,1,"L","true-1",89,2
"1626",1,7,111,3,"I",1387,1,"L","true",90,2
"1627",1,7,111,3,"C",2166,1,"F","true",91,2
"1628",1,7,111,3,"C",1348,1,"F","true",92,2
"1629",1,7,111,4,"E",1863,1,"I","true",93,2
"1630",1,7,111,5,"E",2162,1,"I","true-1",94,2
"1631",1,7,111,3,"K",1311,1,"M","true-1",95,2
"1632",1,7,111,4,"C",1610,1,"G","true",96,2
"1633",1,7,111,2,"K",755,1,"M","true",1,3
"1634",1,7,111,4,"G",2377,1,"L","true+1",2,3
"1635",1,7,111,2,"K",1521,1,"N","true+1",3,3
"1636",1,7,111,3,"C",1543,1,"F","true",4,3
"1637",1,7,111,4,"G",1434,1,"K","true",5,3
"1638",1,7,111,2,"G",2352,1,"I","true",7,3
"1639",1,7,111,4,"G",1564,1,"K","true",9,3
"1640",1,7,111,2,"E",2817,1,"F","true-1",10,3
"1641",1,7,111,3,"A",1842,1,"D","true",11,3
"1642",1,7,111,5,"A",1271,1,"F","true",12,3
"1643",1,7,111,3,"K",3454,1,"O","true+1",14,3
"1644",1,7,111,3,"I",1726,1,"L","true",15,3
"1645",1,7,111,2,"A",1916,1,"D","true+1",16,3
"1646",1,7,111,2,"I",1840,1,"L","true+1",19,3
"1647",1,7,111,5,"I",3278,1,"N","true",20,3
"1648",1,7,111,3,"K",1348,1,"N","true",21,3
"1649",1,7,111,3,"E",2631,1,"I","true+1",22,3
"1650",1,7,111,4,"I",1794,1,"L","true-1",23,3
"1651",1,7,111,2,"I",1333,1,"K","true",24,3
"1652",1,7,111,5,"E",2254,1,"J","true",25,3
"1653",1,7,111,2,"C",1382,1,"E","true",26,3
"1654",1,7,111,4,"E",1481,1,"I","true",27,3
"1655",1,7,111,5,"G",3695,1,"L","true",28,3
"1656",1,7,111,5,"A",890,1,"F","true",30,3
"1657",1,7,111,3,"C",1107,1,"F","true",31,3
"1658",1,7,111,2,"A",846,1,"B","true-1",32,3
"1659",1,7,111,2,"E",875,1,"G","true",33,3
"1660",1,7,111,4,"I",1977,1,"N","true+1",34,3
"1661",1,7,111,3,"I",1673,1,"M","true+1",35,3
"1662",1,7,111,5,"C",3196,1,"H","true",36,3
"1663",1,7,111,4,"A",1554,1,"E","true",37,3
"1664",1,7,111,5,"A",885,1,"E","true-1",38,3
"1665",1,7,111,3,"G",939,1,"I","true-1",39,3
"1666",1,7,111,4,"C",1555,1,"F","true-1",40,3
"1667",1,7,111,3,"I",1193,1,"K","true-1",41,3
"1668",1,7,111,2,"K",1420,1,"L","true-1",42,3
"1669",1,7,111,4,"C",1988,1,"G","true",43,3
"1670",1,7,111,3,"K",1071,1,"N","true",44,3
"1671",1,7,111,3,"A",914,1,"E","true+1",45,3
"1672",1,7,111,5,"E",2045,1,"K","true+1",46,3
"1673",1,7,111,4,"A",1139,1,"F","true+1",47,3
"1674",1,7,111,2,"A",963,1,"C","true",48,3
"1675",1,7,111,2,"G",1553,1,"J","true+1",49,3
"1676",1,7,111,2,"A",772,1,"C","true",50,3
"1677",1,7,111,2,"I",964,1,"J","true-1",51,3
"1678",1,7,111,3,"G",1698,1,"K","true+1",52,3
"1679",1,7,111,4,"K",1130,1,"P","true+1",53,3
"1680",1,7,111,3,"G",1211,1,"J","true",54,3
"1681",1,7,111,5,"I",2011,1,"O","true+1",55,3
"1682",1,7,111,4,"I",1582,1,"M","true",57,3
"1683",1,7,111,5,"G",2457,1,"K","true-1",58,3
"1684",1,7,111,2,"I",1554,1,"K","true",59,3
"1685",1,7,111,3,"K",1261,1,"M","true-1",60,3
"1686",1,7,111,4,"E",3582,1,"I","true",62,3
"1687",1,7,111,5,"C",1433,1,"G","true-1",63,3
"1688",1,7,111,4,"C",1988,1,"G","true",64,3
"1689",1,7,111,2,"C",871,1,"D","true-1",65,3
"1690",1,7,111,3,"C",2010,1,"G","true+1",66,3
"1691",1,7,111,4,"E",2356,1,"J","true+1",68,3
"1692",1,7,111,3,"C",1201,1,"E","true-1",69,3
"1693",1,7,111,2,"G",1326,1,"I","true",70,3
"1694",1,7,111,4,"I",1764,1,"M","true",71,3
"1695",1,7,111,3,"E",1282,1,"H","true",73,3
"1696",1,7,111,3,"A",1803,1,"D","true",75,3
"1697",1,7,111,2,"C",1289,1,"E","true",76,3
"1698",1,7,111,3,"I",1473,1,"L","true",77,3
"1699",1,7,111,5,"C",1972,1,"I","true+1",78,3
"1700",1,7,111,5,"E",2700,1,"J","true",79,3
"1701",1,7,111,4,"K",2309,1,"N","true-1",80,3
"1702",1,7,111,2,"E",960,1,"G","true",81,3
"1703",1,7,111,2,"K",934,1,"M","true",82,3
"1704",1,7,111,4,"C",2030,1,"H","true+1",83,3
"1705",1,7,111,3,"G",2489,1,"J","true",84,3
"1706",1,7,111,5,"A",3570,1,"G","true+1",85,3
"1707",1,7,111,4,"A",2290,1,"D","true-1",86,3
"1708",1,7,111,2,"G",1843,1,"H","true-1",87,3
"1709",1,7,111,4,"K",3136,1,"O","true",88,3
"1710",1,7,111,5,"E",1825,1,"I","true-1",89,3
"1711",1,7,111,2,"E",1676,1,"H","true+1",90,3
"1712",1,7,111,3,"E",1554,1,"H","true",92,3
"1713",1,7,111,5,"I",2573,1,"N","true",93,3
"1714",1,7,111,5,"C",2157,1,"H","true",94,3
"1715",1,7,111,4,"A",2979,1,"E","true",95,3
"1716",1,7,111,4,"G",3196,1,"J","true-1",96,3
"1717",1,7,111,2,"G",904,1,"I","true",1,4
"1718",1,7,111,5,"I",1755,1,"O","true+1",2,4
"1719",1,7,111,2,"A",1784,1,"D","true+1",3,4
"1720",1,7,111,3,"C",1619,1,"E","true-1",4,4
"1721",1,7,111,4,"G",2444,1,"J","true-1",5,4
"1722",1,7,111,5,"A",4298,1,"G","true+1",6,4
"1723",1,7,111,2,"E",2834,1,"F","true-1",7,4
"1724",1,7,111,5,"E",2253,1,"J","true",8,4
"1725",1,7,111,4,"E",2134,1,"I","true",9,4
"1726",1,7,111,3,"I",1078,1,"K","true-1",10,4
"1727",1,7,111,2,"K",1268,1,"L","true-1",11,4
"1728",1,7,111,4,"A",1215,1,"E","true",12,4
"1729",1,7,111,2,"I",1175,1,"K","true",13,4
"1730",1,7,111,4,"I",1296,1,"M","true",14,4
"1731",1,7,111,3,"I",901,1,"L","true",16,4
"1732",1,7,111,2,"K",1077,1,"M","true",17,4
"1733",1,7,111,2,"C",763,1,"E","true",18,4
"1734",1,7,111,4,"I",1176,1,"M","true",19,4
"1735",1,7,111,3,"A",1017,1,"E","true+1",20,4
"1736",1,7,111,4,"E",4465,1,"H","true-1",22,4
"1737",1,7,111,3,"C",1628,1,"F","true",23,4
"1738",1,7,111,3,"E",1832,1,"G","true-1",24,4
"1739",1,7,111,4,"K",2499,1,"O","true",25,4
"1740",1,7,111,2,"G",1123,1,"H","true-1",26,4
"1741",1,7,111,5,"A",1004,1,"F","true",28,4
"1742",1,7,111,2,"E",1002,1,"H","true+1",29,4
"1743",1,7,111,5,"C",1583,1,"H","true",30,4
"1744",1,7,111,3,"E",1530,1,"H","true",31,4
"1745",1,7,111,5,"I",2419,1,"N","true",32,4
"1746",1,7,111,3,"C",1483,1,"G","true+1",33,4
"1747",1,7,111,3,"E",1337,1,"H","true",34,4
"1748",1,7,111,3,"K",1553,1,"M","true-1",35,4
"1749",1,7,111,4,"A",972,1,"F","true+1",36,4
"1750",1,7,111,3,"C",973,1,"F","true",37,4
"1751",1,7,111,2,"A",829,1,"B","true-1",38,4
"1752",1,7,111,4,"C",1560,1,"F","true-1",39,4
"1753",1,7,111,2,"I",949,1,"J","true-1",40,4
"1754",1,7,111,3,"I",3468,1,"M","true+1",42,4
"1755",1,7,111,2,"E",1551,1,"G","true",43,4
"1756",1,7,111,4,"K",2698,1,"O","true",44,4
"1757",1,7,111,5,"A",3898,1,"E","true-1",45,4
"1758",1,7,111,2,"G",1859,1,"J","true+1",46,4
"1759",1,7,111,3,"G",2051,1,"J","true",47,4
"1760",1,7,111,4,"C",1332,1,"G","true",48,4
"1761",1,7,111,3,"G",1020,1,"J","true",49,4
"1762",1,7,111,2,"A",1116,1,"C","true",50,4
"1763",1,7,111,4,"A",994,1,"E","true",51,4
"1764",1,7,111,3,"A",1557,1,"D","true",52,4
"1765",1,7,111,5,"C",1822,1,"G","true-1",54,4
"1766",1,7,111,5,"E",2017,1,"I","true-1",55,4
"1767",1,7,111,3,"A",985,1,"D","true",56,4
"1768",1,7,111,2,"C",1556,1,"E","true",57,4
"1769",1,7,111,3,"G",2042,1,"K","true+1",58,4
"1770",1,7,111,4,"K",1664,1,"P","true+1",59,4
"1771",1,7,111,2,"I",1043,1,"K","true",60,4
"1772",1,7,111,4,"G",2171,1,"K","true",62,4
"1773",1,7,111,2,"K",1092,1,"N","true+1",63,4
"1774",1,7,111,3,"K",2932,1,"N","true",64,4
"1775",1,7,111,5,"C",2589,1,"H","true",65,4
"1776",1,7,111,5,"G",4320,1,"L","true",66,4
"1777",1,7,111,5,"A",1062,1,"F","true",67,4
"1778",1,7,111,5,"I",2745,1,"N","true",68,4
"1779",1,7,111,2,"C",1036,1,"F","true+1",69,4
"1780",1,7,111,5,"E",2521,1,"K","true+1",70,4
"1781",1,7,111,5,"G",3223,1,"M","true+1",71,4
"1782",1,7,111,3,"G",2185,1,"I","true-1",74,4
"1783",1,7,111,5,"G",3661,1,"L","true",75,4
"1784",1,7,111,4,"G",2213,1,"K","true",76,4
"1785",1,7,111,5,"E",1813,1,"J","true",77,4
"1786",1,7,111,3,"K",1337,1,"N","true",79,4
"1787",1,7,111,5,"G",2418,1,"K","true-1",80,4
"1788",1,7,111,2,"A",914,1,"C","true",81,4
"1789",1,7,111,4,"E",1629,1,"I","true",82,4
"1790",1,7,111,2,"C",1055,1,"D","true-1",83,4
"1791",1,7,111,4,"K",1537,1,"N","true-1",84,4
"1792",1,7,111,4,"G",2336,1,"L","true+1",85,4
"1793",1,7,111,3,"K",1954,1,"O","true+1",86,4
"1794",1,7,111,2,"K",1045,1,"M","true",87,4
"1795",1,7,111,4,"I",2085,1,"L","true-1",89,4
"1796",1,7,111,4,"I",1954,1,"N","true+1",90,4
"1797",1,7,111,2,"G",1046,1,"I","true",91,4
"1798",1,7,111,3,"I",1716,1,"L","true",92,4
"1799",1,7,111,3,"A",1914,1,"C","true-1",93,4
"1800",1,7,111,4,"C",2445,1,"G","true",94,4
"1801",1,7,111,2,"E",1314,1,"G","true",95,4
"1802",1,7,111,2,"I",1517,1,"L","true+1",96,4
"1803",1,8,111,4,"I",2140,1,"L","true-1",1,2
"1804",1,8,111,4,"A",1100,1,"E","true",2,2
"1805",1,8,111,3,"A",901,1,"D","true",3,2
"1806",1,8,111,2,"K",1309,1,"M","true",5,2
"1807",1,8,111,3,"G",1158,1,"J","true",7,2
"1808",1,8,111,2,"K",996,1,"N","true+1",8,2
"1809",1,8,111,2,"C",721,1,"E","true",9,2
"1810",1,8,111,2,"I",855,1,"J","true-1",10,2
"1811",1,8,111,3,"C",1311,1,"F","true",11,2
"1812",1,8,111,3,"E",906,1,"H","true",12,2
"1813",1,8,111,2,"K",973,1,"L","true-1",13,2
"1814",1,8,111,4,"K",1878,1,"O","true",14,2
"1815",1,8,111,4,"K",1211,1,"O","true",15,2
"1816",1,8,111,5,"G",2780,1,"K","true-1",16,2
"1817",1,8,111,4,"C",1452,1,"G","true",17,2
"1818",1,8,111,3,"K",1364,1,"N","true",18,2
"1819",1,8,111,2,"C",1130,1,"F","true+1",19,2
"1820",1,8,111,5,"C",1930,1,"I","true+1",20,2
"1821",1,8,111,5,"C",1427,1,"H","true",22,2
"1822",1,8,111,3,"G",1630,1,"K","true+1",23,2
"1823",1,8,111,3,"E",1337,1,"H","true",24,2
"1824",1,8,111,2,"G",1402,1,"I","true",25,2
"1825",1,8,111,4,"E",1991,1,"I","true",26,2
"1826",1,8,111,2,"E",1002,1,"G","true",27,2
"1827",1,8,111,2,"G",2232,1,"J","true+1",28,2
"1828",1,8,111,5,"A",2475,1,"G","true+1",29,2
"1829",1,8,111,2,"C",929,1,"D","true-1",30,2
"1830",1,8,111,4,"C",1337,1,"H","true+1",31,2
"1831",1,8,111,3,"C",1345,1,"E","true-1",32,2
"1832",1,8,111,2,"I",756,1,"K","true",33,2
"1833",1,8,111,5,"G",1930,1,"M","true+1",34,2
"1834",1,8,111,4,"A",1130,1,"D","true-1",35,2
"1835",1,8,111,4,"I",1723,1,"M","true",36,2
"1836",1,8,111,4,"A",2096,1,"E","true",37,2
"1837",1,8,111,4,"G",2361,1,"J","true-1",38,2
"1838",1,8,111,4,"G",2383,1,"K","true",39,2
"1839",1,8,111,5,"A",1557,1,"F","true",41,2
"1840",1,8,111,4,"G",3698,1,"L","true+1",42,2
"1841",1,8,111,4,"E",1891,1,"I","true",43,2
"1842",1,8,111,4,"C",2131,1,"F","true-1",44,2
"1843",1,8,111,5,"C",1647,1,"H","true",47,2
"1844",1,8,111,3,"A",917,1,"D","true",48,2
"1845",1,8,111,5,"I",1770,1,"N","true",49,2
"1846",1,8,111,3,"C",1035,1,"F","true",50,2
"1847",1,8,111,3,"G",2502,1,"J","true",51,2
"1848",1,8,111,4,"E",2689,1,"H","true-1",52,2
"1849",1,8,111,4,"C",1186,1,"G","true",54,2
"1850",1,8,111,5,"A",1485,1,"F","true",55,2
"1851",1,8,111,3,"I",4731,1,"M","true+1",56,2
"1852",1,8,111,3,"I",803,1,"L","true",57,2
"1853",1,8,111,4,"G",1585,1,"K","true",58,2
"1854",1,8,111,3,"G",1812,1,"I","true-1",59,2
"1855",1,8,111,5,"I",2044,1,"N","true",60,2
"1856",1,8,111,3,"A",1730,1,"E","true+1",61,2
"1857",1,8,111,3,"K",2331,1,"N","true",62,2
"1858",1,8,111,2,"G",2027,1,"H","true-1",63,2
"1859",1,8,111,2,"E",1910,1,"H","true+1",64,2
"1860",1,8,111,2,"I",1169,1,"L","true+1",65,2
"1861",1,8,111,5,"E",2561,1,"K","true+1",66,2
"1862",1,8,111,2,"E",999,1,"F","true-1",67,2
"1863",1,8,111,2,"A",1277,1,"D","true+1",68,2
"1864",1,8,111,5,"E",1667,1,"J","true",69,2
"1865",1,8,111,2,"A",1046,1,"C","true",70,2
"1866",1,8,111,5,"C",1835,1,"G","true-1",71,2
"1867",1,8,111,2,"K",817,1,"M","true",72,2
"1868",1,8,111,5,"G",1905,1,"L","true",73,2
"1869",1,8,111,5,"G",1922,1,"L","true",75,2
"1870",1,8,111,5,"E",1800,1,"J","true",76,2
"1871",1,8,111,3,"I",1957,1,"L","true",77,2
"1872",1,8,111,3,"E",1947,1,"G","true-1",78,2
"1873",1,8,111,4,"K",1990,1,"N","true-1",79,2
"1874",1,8,111,3,"K",2625,1,"O","true+1",80,2
"1875",1,8,111,4,"I",1596,1,"N","true+1",81,2
"1876",1,8,111,2,"I",1738,1,"K","true",82,2
"1877",1,8,111,4,"E",3099,1,"J","true+1",83,2
"1878",1,8,111,2,"A",1483,1,"B","true-1",84,2
"1879",1,8,111,2,"E",833,1,"G","true",85,2
"1880",1,8,111,5,"A",1124,1,"E","true-1",86,2
"1881",1,8,111,2,"A",1177,1,"C","true",87,2
"1882",1,8,111,3,"A",882,1,"C","true-1",88,2
"1883",1,8,111,5,"I",1679,1,"O","true+1",89,2
"1884",1,8,111,3,"I",1509,1,"K","true-1",90,2
"1885",1,8,111,3,"C",1640,1,"G","true+1",91,2
"1886",1,8,111,4,"I",2230,1,"M","true",92,2
"1887",1,8,111,3,"E",1641,1,"I","true+1",93,2
"1888",1,8,111,5,"I",1783,1,"M","true-1",94,2
"1889",1,8,111,5,"E",2930,1,"I","true-1",95,2
"1890",1,8,111,2,"C",1250,1,"E","true",96,2
"1891",1,8,111,2,"A",939,1,"C","true",1,3
"1892",1,8,111,4,"E",2155,1,"I","true",2,3
"1893",1,8,111,2,"C",729,1,"E","true",3,3
"1894",1,8,111,3,"G",1905,1,"K","true+1",4,3
"1895",1,8,111,2,"I",1476,1,"K","true",5,3
"1896",1,8,111,3,"K",2082,1,"O","true+1",6,3
"1897",1,8,111,3,"K",1231,1,"N","true",7,3
"1898",1,8,111,3,"C",2306,1,"F","true",8,3
"1899",1,8,111,5,"I",1661,1,"N","true",9,3
"1900",1,8,111,5,"E",2286,1,"I","true-1",10,3
"1901",1,8,111,4,"G",1291,1,"K","true",13,3
"1902",1,8,111,5,"A",995,1,"E","true-1",14,3
"1903",1,8,111,3,"C",1105,1,"E","true-1",15,3
"1904",1,8,111,2,"I",796,1,"J","true-1",16,3
"1905",1,8,111,3,"C",1273,1,"G","true+1",17,3
"1906",1,8,111,2,"E",788,1,"H","true+1",18,3
"1907",1,8,111,2,"G",895,1,"I","true",19,3
"1908",1,8,111,3,"I",991,1,"K","true-1",20,3
"1909",1,8,111,5,"G",1994,1,"K","true-1",21,3
"1910",1,8,111,4,"A",2413,1,"F","true+1",22,3
"1911",1,8,111,2,"C",1102,1,"E","true",23,3
"1912",1,8,111,4,"K",2433,1,"N","true-1",24,3
"1913",1,8,111,3,"K",1629,1,"N","true",26,3
"1914",1,8,111,3,"I",2176,1,"L","true",27,3
"1915",1,8,111,2,"I",1448,1,"L","true+1",28,3
"1916",1,8,111,2,"C",1568,1,"F","true+1",29,3
"1917",1,8,111,2,"G",1289,1,"I","true",30,3
"1918",1,8,111,5,"G",2001,1,"L","true",31,3
"1919",1,8,111,3,"A",1007,1,"E","true+1",32,3
"1920",1,8,111,4,"C",1493,1,"G","true",33,3
"1921",1,8,111,2,"A",1021,1,"C","true",34,3
"1922",1,8,111,2,"K",1005,1,"M","true",35,3
"1923",1,8,111,4,"E",1283,1,"I","true",36,3
"1924",1,8,111,5,"C",1769,1,"H","true",37,3
"1925",1,8,111,4,"G",1665,1,"K","true",38,3
"1926",1,8,111,4,"I",1748,1,"N","true+1",39,3
"1927",1,8,111,2,"E",1239,1,"G","true",40,3
"1928",1,8,111,4,"I",1789,1,"L","true-1",41,3
"1929",1,8,111,4,"I",3056,1,"M","true",42,3
"1930",1,8,111,5,"A",4000,1,"F","true",43,3
"1931",1,8,111,5,"E",1734,1,"J","true",44,3
"1932",1,8,111,3,"E",1143,1,"H","true",45,3
"1933",1,8,111,3,"G",1546,1,"J","true",46,3
"1934",1,8,111,2,"A",941,1,"D","true+1",47,3
"1935",1,8,111,5,"I",2477,1,"M","true-1",48,3
"1936",1,8,111,2,"G",1347,1,"J","true+1",49,3
"1937",1,8,111,4,"C",1486,1,"F","true-1",50,3
"1938",1,8,111,5,"A",1433,1,"F","true",52,3
"1939",1,8,111,5,"I",1812,1,"O","true+1",53,3
"1940",1,8,111,3,"A",1308,1,"C","true-1",54,3
"1941",1,8,111,3,"K",1015,1,"M","true-1",55,3
"1942",1,8,111,5,"E",1672,1,"K","true+1",56,3
"1943",1,8,111,3,"E",2811,1,"H","true",57,3
"1944",1,8,111,3,"A",1387,1,"D","true",58,3
"1945",1,8,111,4,"C",2566,1,"H","true+1",59,3
"1946",1,8,111,2,"E",1268,1,"F","true-1",60,3
"1947",1,8,111,3,"E",1559,1,"G","true-1",61,3
"1948",1,8,111,4,"G",2221,1,"L","true+1",62,3
"1949",1,8,111,2,"A",1005,1,"B","true-1",63,3
"1950",1,8,111,5,"C",1267,1,"G","true-1",64,3
"1951",1,8,111,5,"A",1742,1,"G","true+1",65,3
"1952",1,8,111,3,"G",1073,1,"I","true-1",66,3
"1953",1,8,111,5,"G",2092,1,"L","true",67,3
"1954",1,8,111,3,"E",1516,1,"I","true+1",68,3
"1955",1,8,111,4,"G",1482,1,"J","true-1",69,3
"1956",1,8,111,4,"C",2291,1,"G","true",71,3
"1957",1,8,111,2,"G",1435,1,"H","true-1",72,3
"1958",1,8,111,2,"C",753,1,"D","true-1",73,3
"1959",1,8,111,3,"G",1884,1,"J","true",74,3
"1960",1,8,111,5,"E",1729,1,"J","true",75,3
"1961",1,8,111,4,"A",1130,1,"D","true-1",77,3
"1962",1,8,111,4,"E",1922,1,"J","true+1",78,3
"1963",1,8,111,2,"K",848,1,"L","true-1",79,3
"1964",1,8,111,5,"C",2145,1,"H","true",80,3
"1965",1,8,111,5,"C",2220,1,"I","true+1",81,3
"1966",1,8,111,4,"K",1204,1,"O","true",82,3
"1967",1,8,111,3,"I",2130,1,"M","true+1",83,3
"1968",1,8,111,4,"E",1586,1,"H","true-1",84,3
"1969",1,8,111,4,"A",925,1,"E","true",85,3
"1970",1,8,111,4,"I",1387,1,"M","true",87,3
"1971",1,8,111,2,"I",974,1,"K","true",88,3
"1972",1,8,111,5,"I",2702,1,"N","true",89,3
"1973",1,8,111,4,"A",666,1,"E","true",90,3
"1974",1,8,111,2,"K",781,1,"M","true",91,3
"1975",1,8,111,3,"A",1749,1,"D","true",92,3
"1976",1,8,111,2,"E",808,1,"G","true",93,3
"1977",1,8,111,3,"C",1045,1,"F","true",94,3
"1978",1,8,111,2,"K",987,1,"N","true+1",95,3
"1979",1,8,111,4,"K",1278,1,"P","true+1",96,3
"1980",1,8,111,2,"E",999,1,"G","true",1,4
"1981",1,8,111,5,"A",1028,1,"F","true",2,4
"1982",1,8,111,5,"E",2319,1,"J","true",3,4
"1983",1,8,111,2,"A",1909,1,"C","true",4,4
"1984",1,8,111,5,"A",648,1,"F","true",5,4
"1985",1,8,111,4,"K",1072,1,"N","true-1",6,4
"1986",1,8,111,5,"A",1427,1,"G","true+1",7,4
"1987",1,8,111,3,"C",1158,1,"G","true+1",8,4
"1988",1,8,111,2,"I",1036,1,"L","true+1",9,4
"1989",1,8,111,5,"I",3042,1,"N","true",10,4
"1990",1,8,111,3,"E",3631,1,"I","true+1",11,4
"1991",1,8,111,4,"E",1907,1,"H","true-1",12,4
"1992",1,8,111,5,"G",2070,1,"L","true",13,4
"1993",1,8,111,3,"G",1897,1,"J","true",14,4
"1994",1,8,111,5,"C",1724,1,"H","true",16,4
"1995",1,8,111,5,"C",1658,1,"I","true+1",17,4
"1996",1,8,111,2,"A",994,1,"D","true+1",18,4
"1997",1,8,111,3,"K",2253,1,"O","true+1",19,4
"1998",1,8,111,4,"A",1582,1,"D","true-1",20,4
"1999",1,8,111,2,"C",745,1,"E","true",21,4
"2000",1,8,111,4,"E",1604,1,"J","true+1",22,4
"2001",1,8,111,3,"I",1753,1,"K","true-1",23,4
"2002",1,8,111,2,"E",2052,1,"H","true+1",24,4
"2003",1,8,111,2,"K",1413,1,"N","true+1",25,4
"2004",1,8,111,4,"E",2293,1,"I","true",26,4
"2005",1,8,111,4,"G",2134,1,"J","true-1",27,4
"2006",1,8,111,3,"E",1870,1,"H","true",28,4
"2007",1,8,111,2,"I",1721,1,"J","true-1",29,4
"2008",1,8,111,2,"G",2583,1,"I","true",30,4
"2009",1,8,111,4,"C",1522,1,"G","true",31,4
"2010",1,8,111,2,"C",800,1,"D","true-1",32,4
"2011",1,8,111,3,"G",2117,1,"K","true+1",33,4
"2012",1,8,111,3,"G",2235,1,"J","true",35,4
"2013",1,8,111,2,"K",1889,1,"L","true-1",36,4
"2014",1,8,111,3,"I",4210,1,"L","true",37,4
"2015",1,8,111,3,"C",2186,1,"E","true-1",38,4
"2016",1,8,111,3,"E",2693,1,"H","true",39,4
"2017",1,8,111,4,"K",998,1,"O","true",40,4
"2018",1,8,111,2,"A",723,1,"B","true-1",41,4
"2019",1,8,111,2,"E",921,1,"F","true-1",42,4
"2020",1,8,111,5,"C",5247,1,"G","true-1",43,4
"2021",1,8,111,3,"C",997,1,"F","true",44,4
"2022",1,8,111,5,"I",3354,1,"O","true+1",45,4
"2023",1,8,111,4,"I",2406,1,"M","true",46,4
"2024",1,8,111,5,"A",2259,1,"E","true-1",47,4
"2025",1,8,111,4,"G",1564,1,"K","true",48,4
"2026",1,8,111,4,"K",1074,1,"P","true+1",49,4
"2027",1,8,111,2,"C",1188,1,"E","true",50,4
"2028",1,8,111,5,"G",2295,1,"L","true",51,4
"2029",1,8,111,4,"I",2336,1,"L","true-1",52,4
"2030",1,8,111,2,"G",1024,1,"I","true",53,4
"2031",1,8,111,4,"C",2491,1,"F","true-1",54,4
"2032",1,8,111,3,"A",1916,1,"E","true+1",55,4
"2033",1,8,111,5,"I",1994,1,"M","true-1",56,4
"2034",1,8,111,3,"I",1474,1,"M","true+1",58,4
"2035",1,8,111,2,"C",1589,1,"F","true+1",59,4
"2036",1,8,111,3,"K",1808,1,"N","true",60,4
"2037",1,8,111,5,"E",1945,1,"I","true-1",61,4
"2038",1,8,111,2,"G",2316,1,"H","true-1",62,4
"2039",1,8,111,4,"I",1583,1,"M","true",64,4
"2040",1,8,111,4,"I",1962,1,"N","true+1",65,4
"2041",1,8,111,4,"C",2184,1,"H","true+1",66,4
"2042",1,8,111,5,"E",2475,1,"J","true",67,4
"2043",1,8,111,5,"C",1980,1,"H","true",69,4
"2044",1,8,111,4,"C",1749,1,"G","true",70,4
"2045",1,8,111,2,"I",880,1,"K","true",71,4
"2046",1,8,111,3,"G",1613,1,"I","true-1",72,4
"2047",1,8,111,3,"I",1454,1,"L","true",73,4
"2048",1,8,111,5,"E",1785,1,"K","true+1",75,4
"2049",1,8,111,4,"E",1508,1,"I","true",76,4
"2050",1,8,111,3,"A",1067,1,"C","true-1",78,4
"2051",1,8,111,5,"G",3862,1,"M","true+1",79,4
"2052",1,8,111,3,"A",842,1,"D","true",81,4
"2053",1,8,111,3,"K",1191,1,"M","true-1",82,4
"2054",1,8,111,4,"A",810,1,"E","true",83,4
"2055",1,8,111,5,"G",5035,1,"K","true-1",84,4
"2056",1,8,111,2,"A",1409,1,"C","true",85,4
"2057",1,8,111,3,"C",4001,1,"F","true",86,4
"2058",1,8,111,2,"E",1287,1,"G","true",87,4
"2059",1,8,111,2,"K",733,1,"M","true",88,4
"2060",1,8,111,4,"A",1117,1,"F","true+1",89,4
"2061",1,8,111,2,"K",939,1,"M","true",90,4
"2062",1,8,111,4,"K",1659,1,"O","true",91,4
"2063",1,8,111,3,"K",1977,1,"N","true",94,4
"2064",1,8,111,3,"A",690,1,"D","true",95,4
"2065",1,8,111,2,"I",1042,1,"K","true",96,4
"2066",1,9,111,2,"C",1323,1,"E","true",1,2
"2067",1,9,111,5,"E",2352,1,"J","true",2,2
"2068",1,9,111,2,"A",1052,1,"D","true+1",3,2
"2069",1,9,111,3,"K",988,1,"N","true",4,2
"2070",1,9,111,3,"E",1511,1,"G","true-1",5,2
"2071",1,9,111,3,"C",874,1,"F","true",6,2
"2072",1,9,111,5,"A",2037,1,"E","true-1",7,2
"2073",1,9,111,2,"K",659,1,"M","true",8,2
"2074",1,9,111,2,"G",1411,1,"I","true",9,2
"2075",1,9,111,4,"I",1571,1,"L","true-1",10,2
"2076",1,9,111,2,"G",2332,1,"J","true+1",11,2
"2077",1,9,111,2,"E",1132,1,"G","true",12,2
"2078",1,9,111,4,"I",1340,1,"M","true",13,2
"2079",1,9,111,4,"A",925,1,"E","true",14,2
"2080",1,9,111,2,"A",634,1,"C","true",15,2
"2081",1,9,111,5,"A",1301,1,"F","true",16,2
"2082",1,9,111,2,"I",998,1,"J","true-1",17,2
"2083",1,9,111,3,"G",2547,1,"K","true+1",18,2
"2084",1,9,111,4,"C",1278,1,"G","true",19,2
"2085",1,9,111,3,"A",1332,1,"C","true-1",20,2
"2086",1,9,111,4,"E",2196,1,"I","true",21,2
"2087",1,9,111,2,"A",938,1,"B","true-1",22,2
"2088",1,9,111,2,"I",1946,1,"L","true+1",23,2
"2089",1,9,111,2,"G",1717,1,"H","true-1",24,2
"2090",1,9,111,3,"C",2089,1,"E","true-1",26,2
"2091",1,9,111,2,"E",1239,1,"F","true-1",28,2
"2092",1,9,111,5,"I",3397,1,"O","true+1",29,2
"2093",1,9,111,3,"K",3227,1,"O","true+1",30,2
"2094",1,9,111,5,"C",1324,1,"G","true-1",33,2
"2095",1,9,111,2,"C",929,1,"D","true-1",34,2
"2096",1,9,111,5,"E",1986,1,"K","true+1",36,2
"2097",1,9,111,2,"C",1432,1,"F","true+1",37,2
"2098",1,9,111,5,"A",2051,1,"G","true+1",38,2
"2099",1,9,111,3,"E",2795,1,"I","true+1",39,2
"2100",1,9,111,2,"E",921,1,"H","true+1",40,2
"2101",1,9,111,4,"C",1575,1,"F","true-1",41,2
"2102",1,9,111,3,"G",2247,1,"J","true",42,2
"2103",1,9,111,3,"C",1845,1,"F","true",43,2
"2104",1,9,111,4,"A",738,1,"E","true",44,2
"2105",1,9,111,5,"E",1531,1,"J","true",45,2
"2106",1,9,111,4,"K",1723,1,"O","true",46,2
"2107",1,9,111,5,"C",2513,1,"H","true",47,2
"2108",1,9,111,4,"G",1796,1,"L","true+1",48,2
"2109",1,9,111,2,"A",770,1,"C","true",49,2
"2110",1,9,111,3,"A",1250,1,"E","true+1",50,2
"2111",1,9,111,3,"I",1962,1,"K","true-1",51,2
"2112",1,9,111,4,"A",1952,1,"D","true-1",52,2
"2113",1,9,111,2,"I",1155,1,"K","true",53,2
"2114",1,9,111,5,"C",1817,1,"H","true",54,2
"2115",1,9,111,4,"K",1753,1,"O","true",55,2
"2116",1,9,111,4,"C",2396,1,"G","true",56,2
"2117",1,9,111,4,"K",2130,1,"N","true-1",57,2
"2118",1,9,111,5,"I",2546,1,"N","true",58,2
"2119",1,9,111,4,"I",2117,1,"M","true",59,2
"2120",1,9,111,4,"E",2179,1,"J","true+1",60,2
"2121",1,9,111,5,"A",2060,1,"F","true",61,2
"2122",1,9,111,3,"K",1020,1,"M","true-1",62,2
"2123",1,9,111,3,"A",1396,1,"D","true",63,2
"2124",1,9,111,3,"G",2986,1,"J","true",64,2
"2125",1,9,111,2,"C",701,1,"E","true",65,2
"2126",1,9,111,4,"I",1294,1,"N","true+1",67,2
"2127",1,9,111,2,"K",1246,1,"L","true-1",68,2
"2128",1,9,111,4,"G",1980,1,"J","true-1",69,2
"2129",1,9,111,4,"G",1348,1,"K","true",70,2
"2130",1,9,111,2,"G",1175,1,"I","true",71,2
"2131",1,9,111,3,"E",2031,1,"H","true",72,2
"2132",1,9,111,4,"E",2939,1,"H","true-1",73,2
"2133",1,9,111,5,"G",1811,1,"L","true",74,2
"2134",1,9,111,3,"I",1011,1,"L","true",75,2
"2135",1,9,111,2,"I",1540,1,"K","true",76,2
"2136",1,9,111,3,"K",1855,1,"N","true",77,2
"2137",1,9,111,5,"C",2087,1,"I","true+1",78,2
"2138",1,9,111,5,"G",2773,1,"M","true+1",79,2
"2139",1,9,111,3,"I",1184,1,"L","true",80,2
"2140",1,9,111,3,"I",1163,1,"M","true+1",81,2
"2141",1,9,111,4,"G",2129,1,"K","true",83,2
"2142",1,9,111,5,"I",2017,1,"N","true",84,2
"2143",1,9,111,2,"K",1146,1,"M","true",85,2
"2144",1,9,111,5,"G",2237,1,"L","true",86,2
"2145",1,9,111,3,"G",1595,1,"I","true-1",87,2
"2146",1,9,111,3,"C",1910,1,"G","true+1",88,2
"2147",1,9,111,4,"E",2329,1,"I","true",89,2
"2148",1,9,111,3,"A",833,1,"D","true",90,2
"2149",1,9,111,4,"K",788,1,"P","true+1",91,2
"2150",1,9,111,5,"E",1815,1,"I","true-1",92,2
"2151",1,9,111,5,"I",2687,1,"M","true-1",93,2
"2152",1,9,111,3,"E",973,1,"H","true",94,2
"2153",1,9,111,5,"G",1718,1,"K","true-1",95,2
"2154",1,9,111,4,"K",1068,1,"N","true-1",1,3
"2155",1,9,111,2,"E",1135,1,"G","true",2,3
"2156",1,9,111,5,"G",1791,1,"K","true-1",3,3
"2157",1,9,111,4,"E",1890,1,"I","true",4,3
"2158",1,9,111,4,"E",875,1,"H","true-1",5,3
"2159",1,9,111,3,"K",912,1,"N","true",6,3
"2160",1,9,111,5,"I",1659,1,"N","true",7,3
"2161",1,9,111,4,"K",1396,1,"O","true",8,3
"2162",1,9,111,2,"E",2580,1,"F","true-1",10,3
"2163",1,9,111,5,"G",3845,1,"M","true+1",11,3
"2164",1,9,111,4,"G",2587,1,"K","true",12,3
"2165",1,9,111,3,"A",1254,1,"C","true-1",13,3
"2166",1,9,111,2,"A",766,1,"B","true-1",14,3
"2167",1,9,111,2,"K",1068,1,"L","true-1",15,3
"2168",1,9,111,4,"G",2383,1,"L","true+1",16,3
"2169",1,9,111,3,"I",1586,1,"L","true",17,3
"2170",1,9,111,2,"E",2333,1,"G","true",18,3
"2171",1,9,111,2,"E",1568,1,"H","true+1",19,3
"2172",1,9,111,3,"A",1446,1,"E","true+1",20,3
"2173",1,9,111,2,"A",699,1,"C","true",21,3
"2174",1,9,111,2,"A",788,1,"D","true+1",22,3
"2175",1,9,111,4,"I",1687,1,"M","true",23,3
"2176",1,9,111,4,"C",1548,1,"G","true",24,3
"2177",1,9,111,3,"I",1183,1,"L","true",25,3
"2178",1,9,111,2,"K",810,1,"N","true+1",26,3
"2179",1,9,111,5,"C",1987,1,"H","true",27,3
"2180",1,9,111,5,"G",2062,1,"L","true",28,3
"2181",1,9,111,5,"C",2321,1,"H","true",29,3
"2182",1,9,111,2,"I",911,1,"K","true",30,3
"2183",1,9,111,3,"C",2297,1,"G","true+1",31,3
"2184",1,9,111,5,"C",1730,1,"G","true-1",32,3
"2185",1,9,111,5,"C",1570,1,"I","true+1",33,3
"2186",1,9,111,2,"K",707,1,"M","true",36,3
"2187",1,9,111,4,"I",2846,1,"M","true",37,3
"2188",1,9,111,4,"A",1394,1,"F","true+1",39,3
"2189",1,9,111,2,"G",1261,1,"I","true",40,3
"2190",1,9,111,5,"A",2725,1,"G","true+1",41,3
"2191",1,9,111,5,"E",1707,1,"J","true",42,3
"2192",1,9,111,4,"I",1950,1,"L","true-1",43,3
"2193",1,9,111,3,"I",1633,1,"M","true+1",44,3
"2194",1,9,111,2,"I",2340,1,"J","true-1",45,3
"2195",1,9,111,5,"A",1093,1,"F","true",46,3
"2196",1,9,111,2,"G",1259,1,"J","true+1",48,3
"2197",1,9,111,3,"E",1195,1,"H","true",49,3
"2198",1,9,111,3,"G",1680,1,"J","true",50,3
"2199",1,9,111,2,"C",1094,1,"F","true+1",51,3
"2200",1,9,111,5,"G",1679,1,"L","true",52,3
"2201",1,9,111,3,"E",1652,1,"G","true-1",53,3
"2202",1,9,111,5,"A",925,1,"F","true",54,3
"2203",1,9,111,3,"C",738,1,"F","true",55,3
"2204",1,9,111,2,"I",1339,1,"L","true+1",56,3
"2205",1,9,111,2,"I",705,1,"K","true",58,3
"2206",1,9,111,5,"E",2980,1,"J","true",59,3
"2207",1,9,111,3,"K",1660,1,"O","true+1",60,3
"2208",1,9,111,4,"K",845,1,"O","true",62,3
"2209",1,9,111,4,"G",1691,1,"K","true",63,3
"2210",1,9,111,5,"E",2531,1,"K","true+1",64,3
"2211",1,9,111,3,"K",844,1,"N","true",66,3
"2212",1,9,111,2,"G",1804,1,"I","true",67,3
"2213",1,9,111,3,"G",1322,1,"J","true",68,3
"2214",1,9,111,2,"C",743,1,"E","true",69,3
"2215",1,9,111,3,"G",1082,1,"K","true+1",70,3
"2216",1,9,111,3,"K",952,1,"M","true-1",71,3
"2217",1,9,111,5,"I",2299,1,"N","true",72,3
"2218",1,9,111,2,"A",923,1,"C","true",73,3
"2219",1,9,111,2,"K",649,1,"M","true",74,3
"2220",1,9,111,5,"E",1697,1,"I","true-1",75,3
"2221",1,9,111,4,"I",1604,1,"N","true+1",76,3
"2222",1,9,111,3,"I",1530,1,"K","true-1",77,3
"2223",1,9,111,3,"A",1050,1,"D","true",78,3
"2224",1,9,111,4,"A",1091,1,"E","true",79,3
"2225",1,9,111,4,"A",883,1,"E","true",80,3
"2226",1,9,111,4,"E",1409,1,"I","true",81,3
"2227",1,9,111,3,"C",1161,1,"E","true-1",82,3
"2228",1,9,111,5,"I",1815,1,"O","true+1",83,3
"2229",1,9,111,4,"E",2175,1,"J","true+1",84,3
"2230",1,9,111,4,"C",1912,1,"G","true",85,3
"2231",1,9,111,3,"E",1027,1,"I","true+1",87,3
"2232",1,9,111,4,"K",1134,1,"P","true+1",88,3
"2233",1,9,111,5,"A",1095,1,"E","true-1",89,3
"2234",1,9,111,2,"G",751,1,"H","true-1",90,3
"2235",1,9,111,2,"C",882,1,"D","true-1",91,3
"2236",1,9,111,2,"C",1455,1,"E","true",92,3
"2237",1,9,111,4,"A",984,1,"D","true-1",93,3
"2238",1,9,111,3,"C",851,1,"F","true",94,3
"2239",1,9,111,3,"E",1155,1,"H","true",95,3
"2240",1,9,111,3,"A",817,1,"D","true",96,3
"2241",1,9,111,3,"C",817,1,"F","true",1,4
"2242",1,9,111,2,"E",962,1,"G","true",2,4
"2243",1,9,111,4,"C",1719,1,"G","true",3,4
"2244",1,9,111,2,"I",885,1,"J","true-1",4,4
"2245",1,9,111,3,"A",1210,1,"D","true",5,4
"2246",1,9,111,2,"G",1971,1,"H","true-1",7,4
"2247",1,9,111,4,"E",3196,1,"H","true-1",8,4
"2248",1,9,111,3,"K",1050,1,"N","true",9,4
"2249",1,9,111,4,"G",1125,1,"K","true",10,4
"2250",1,9,111,4,"G",2490,1,"L","true+1",11,4
"2251",1,9,111,5,"C",1995,1,"H","true",12,4
"2252",1,9,111,4,"A",2449,1,"E","true",13,4
"2253",1,9,111,4,"K",969,1,"O","true",14,4
"2254",1,9,111,5,"G",3017,1,"K","true-1",15,4
